SensorIndex_1,AccelX_1,AccelY_1,AccelZ_1,GyroX_1,GyroY_1,GyroZ_1,MagX_1,MagY_1,MagZ_1,Quat1_1,Quat2_1,Quat3_1,Quat4_1,Sampletime_1,Package_1
0,0.03999999910593033,-0.07999999821186066,9.699999809265137,0.0625,-0.125,0.0625,30.6875,-31.25,-20.0625,-0.3962460458278656,-0.004760812036693096,0.007141217589378357,-0.9181042313575745,19640,1
0,0.03999999910593033,-0.07000000029802322,9.739999771118164,0.125,0.0625,0,30.6875,-31.25,-20.0625,-0.3962460458278656,-0.004760812036693096,0.007141217589378357,-0.9181042313575745,19650,2
0,0.05999999865889549,-0.07999999821186066,9.739999771118164,0.0625,0,0.125,29.875,-32.375,-20.0625,-0.3962460458278656,-0.004760812036693096,0.007141217589378357,-0.9181042313575745,19660,3
0,0.05999999865889549,-0.07000000029802322,9.729999542236328,0.0625,-0.25,-0.0625,29.875,-32.375,-20.0625,-0.3962460458278656,-0.004760812036693096,0.007141217589378357,-0.9181042313575745,19670,4
0,0.03999999910593033,-0.10000000149011612,9.710000038146973,-0.125,-0.1875,0.0625,29.875,-32.375,-20.0625,-0.3962460458278656,-0.004760812036693096,0.007141217589378357,-0.9181042313575745,19680,5
0,0.05000000074505806,-0.05999999865889549,9.710000038146973,0.125,-0.125,0,29.875,-32.375,-20.0625,-0.3962460458278656,-0.004760812036693096,0.007141217589378357,-0.9181042313575745,19690,6
0,0.03999999910593033,-0.07999999821186066,9.729999542236328,0,-0.1875,0,29.875,-32.375,-20.0625,-0.3962460458278656,-0.004760812036693096,0.007141217589378357,-0.9181042313575745,19700,7
0,0.05999999865889549,-0.09000000357627869,9.760000228881836,0.0625,0,0.125,29.1875,-30.1875,-19.5625,-0.3962460458278656,-0.004760812036693096,0.007141217589378357,-0.9181042313575745,19710,8
0,0.03999999910593033,-0.07000000029802322,9.770000457763672,0,-0.1875,0.0625,29.1875,-30.1875,-19.5625,-0.3962460458278656,-0.004760812036693096,0.007141217589378357,-0.9181042313575745,19720,9
0,0.05999999865889549,-0.09000000357627869,9.720000267028809,0.0625,0,0.0625,29.1875,-30.1875,-19.5625,-0.3962460458278656,-0.004760812036693096,0.007141217589378357,-0.9181042313575745,19730,10
0,0.05000000074505806,-0.07999999821186066,9.729999542236328,0.0625,-0.0625,0,29.1875,-30.1875,-19.5625,-0.3962460458278656,-0.004760812036693096,0.007141217589378357,-0.9181042313575745,19740,11
0,0.05999999865889549,-0.07999999821186066,9.739999771118164,0,-0.125,0.0625,29.1875,-30.1875,-19.5625,-0.3962460458278656,-0.004760812036693096,0.007141217589378357,-0.9181042313575745,19750,12
0,0.05000000074505806,-0.07999999821186066,9.739999771118164,0.0625,-0.125,0.0625,29.5,-27.1875,-18.0625,-0.3962460458278656,-0.004760812036693096,0.007141217589378357,-0.9181042313575745,19760,13
0,0.07000000029802322,-0.09000000357627869,9.739999771118164,0.0625,0.0625,0.125,29.5,-27.1875,-18.0625,-0.3962460458278656,-0.004760812036693096,0.007141217589378357,-0.9181042313575745,19770,14
0,0.05000000074505806,-0.07000000029802322,9.699999809265137,0.1875,-0.0625,0,29.5,-27.1875,-18.0625,-0.3962460458278656,-0.004760812036693096,0.007141217589378357,-0.9181042313575745,19780,15
0,0.03999999910593033,-0.09000000357627869,9.699999809265137,-0.0625,-0.125,-0.0625,29.5,-27.1875,-18.0625,-0.3962460458278656,-0.004760812036693096,0.007141217589378357,-0.9181042313575745,19790,16
0,0.05999999865889549,-0.09000000357627869,9.739999771118164,0,-0.0625,0.0625,29.5,-27.1875,-18.0625,-0.3962460458278656,-0.004760812036693096,0.007141217589378357,-0.9181042313575745,19800,17
0,0.05999999865889549,-0.09000000357627869,9.75,0,-0.0625,0,29.1875,-28.6875,-18.5,-0.3962460458278656,-0.004760812036693096,0.007141217589378357,-0.9181042313575745,19810,18
0,0.05999999865889549,-0.05999999865889549,9.729999542236328,-0.1875,0.0625,-0.0625,29.1875,-28.6875,-18.5,-0.3962460458278656,-0.004760812036693096,0.007141217589378357,-0.9181042313575745,19820,19
0,0.05999999865889549,-0.07999999821186066,9.729999542236328,0,-0.0625,0,29.1875,-28.6875,-18.5,-0.3962460458278656,-0.004760812036693096,0.007141217589378357,-0.9181042313575745,19830,20
0,0.03999999910593033,-0.07000000029802322,9.729999542236328,-0.0625,-0.0625,0,29.1875,-28.6875,-18.5,-0.3962460458278656,-0.004760812036693096,0.007141217589378357,-0.9181042313575745,19840,21
0,0.03999999910593033,-0.09000000357627869,9.739999771118164,-0.0625,-0.1875,-0.0625,29.1875,-28.6875,-18.5,-0.3962460458278656,-0.004760812036693096,0.007141217589378357,-0.9181042313575745,19850,22
0,0.05999999865889549,-0.07999999821186066,9.760000228881836,0.0625,0.125,0,29.1875,-30.1875,-19.25,-0.3962460458278656,-0.004760812036693096,0.007141217589378357,-0.9181042313575745,19860,23
0,0.05999999865889549,-0.09000000357627869,9.720000267028809,0.125,0.0625,0.0625,29.1875,-30.1875,-19.25,-0.3962460458278656,-0.004760812036693096,0.007141217589378357,-0.9181042313575745,19870,24
0,0.05000000074505806,-0.10000000149011612,9.710000038146973,0,-0.0625,0,29.1875,-30.1875,-19.25,-0.3962460458278656,-0.004760812036693096,0.007141217589378357,-0.9181042313575745,19880,25
0,0.03999999910593033,-0.10000000149011612,9.720000267028809,-0.0625,-0.0625,-0.0625,29.1875,-30.1875,-19.25,-0.3962460458278656,-0.004760812036693096,0.007141217589378357,-0.9181042313575745,19890,26
0,0.03999999910593033,-0.07000000029802322,9.739999771118164,0.0625,-0.25,0.0625,29.1875,-30.1875,-19.25,-0.3962460458278656,-0.004760812036693096,0.007141217589378357,-0.9181042313575745,19900,27
0,0.05000000074505806,-0.07000000029802322,9.739999771118164,0.125,0,0.125,29.5,-23.75,-20.0625,-0.3962460458278656,-0.004760812036693096,0.007141217589378357,-0.9181042313575745,19910,28
0,0.05000000074505806,-0.09000000357627869,9.720000267028809,0.125,-0.25,0.0625,29.5,-23.75,-20.0625,-0.3962460458278656,-0.004760812036693096,0.007141217589378357,-0.9181042313575745,19920,29
0,0.05999999865889549,-0.09000000357627869,9.75,0,-0.25,0.125,29.5,-23.75,-20.0625,-0.3962460458278656,-0.004760812036693096,0.007141217589378357,-0.9181042313575745,19930,30
0,0.03999999910593033,-0.07000000029802322,9.720000267028809,0,-0.1875,-0.0625,29.5,-23.75,-20.0625,-0.3962460458278656,-0.004760812036693096,0.007141217589378357,-0.9181042313575745,19940,31
0,0.05000000074505806,-0.09000000357627869,9.760000228881836,0.0625,0.0625,0.0625,29.5,-23.75,-20.0625,-0.3962460458278656,-0.004760812036693096,0.007141217589378357,-0.9181042313575745,19950,32
0,0.05999999865889549,-0.07999999821186066,9.720000267028809,0.1875,-0.0625,0,30.6875,-28.25,-18.875,-0.3962460458278656,-0.004760812036693096,0.007141217589378357,-0.9181042313575745,19960,33
0,0.05999999865889549,-0.10000000149011612,9.739999771118164,0.0625,0.0625,0.0625,30.6875,-28.25,-18.875,-0.3962460458278656,-0.004760812036693096,0.007141217589378357,-0.9181042313575745,19970,34
0,0.03999999910593033,-0.07999999821186066,9.739999771118164,-0.125,-0.0625,0,30.6875,-28.25,-18.875,-0.3962460458278656,-0.004760812036693096,0.007141217589378357,-0.9181042313575745,19980,35
0,0.05999999865889549,-0.05999999865889549,9.75,0.0625,0.0625,0,30.6875,-28.25,-18.875,-0.3962460458278656,-0.004760812036693096,0.007141217589378357,-0.9181042313575745,19990,36
0,0.07000000029802322,-0.09000000357627869,9.729999542236328,0.125,-0.3125,0.0625,30.6875,-28.25,-18.875,-0.3962460458278656,-0.004760812036693096,0.007141217589378357,-0.9181042313575745,20000,37
0,0.07000000029802322,-0.07000000029802322,9.760000228881836,0.0625,-0.125,0,29.875,-28.25,-18.5,-0.3962460458278656,-0.004760812036693096,0.007141217589378357,-0.9181042313575745,20010,38
0,0.03999999910593033,-0.07000000029802322,9.739999771118164,0.0625,-0.1875,0,29.875,-28.25,-18.5,-0.3962460458278656,-0.004760812036693096,0.007141217589378357,-0.9181042313575745,20020,39
0,0.05999999865889549,-0.05000000074505806,9.729999542236328,0.0625,0.125,0,29.875,-28.25,-18.5,-0.3962460458278656,-0.004760812036693096,0.007141217589378357,-0.9181042313575745,20030,40
0,0.05000000074505806,-0.09000000357627869,9.720000267028809,-0.0625,-0.0625,0,29.875,-28.25,-18.5,-0.3962460458278656,-0.004760812036693096,0.007141217589378357,-0.9181042313575745,20040,41
0,0.029999999329447746,-0.05999999865889549,9.720000267028809,0.0625,0,0,29.875,-28.25,-18.5,-0.3962460458278656,-0.004760812036693096,0.007141217589378357,-0.9181042313575745,20050,42
0,0.029999999329447746,-0.07000000029802322,9.760000228881836,0.125,0.125,-0.0625,29.5,-27.5,-18.75,-0.3962460458278656,-0.004760812036693096,0.007141217589378357,-0.9181042313575745,20061,43
0,0.029999999329447746,-0.09000000357627869,9.760000228881836,0,0,-0.125,29.5,-27.5,-18.75,-0.3962460458278656,-0.004760812036693096,0.007141217589378357,-0.9181042313575745,20071,44
0,0.03999999910593033,-0.05000000074505806,9.729999542236328,0.0625,-0.125,-0.0625,29.5,-27.5,-18.75,-0.3962460458278656,-0.004760812036693096,0.007141217589378357,-0.9181042313575745,20081,45
0,0.03999999910593033,-0.07999999821186066,9.729999542236328,0,0.0625,0.125,29.5,-27.5,-18.75,-0.3962460458278656,-0.004760812036693096,0.007141217589378357,-0.9181042313575745,20090,46
0,0.03999999910593033,-0.09000000357627869,9.75,-0.0625,-0.125,0.0625,29.5,-27.5,-18.75,-0.3962460458278656,-0.004760812036693096,0.007141217589378357,-0.9181042313575745,20100,47
0,0.05000000074505806,-0.09000000357627869,9.75,0,-0.125,0,31.375,-28.25,-18.875,-0.3962460458278656,-0.004760812036693096,0.007141217589378357,-0.9181042313575745,20111,48
0,0.03999999910593033,-0.07999999821186066,9.729999542236328,-0.125,-0.0625,0.125,31.375,-28.25,-18.875,-0.3962460458278656,-0.004760812036693096,0.007141217589378357,-0.9181042313575745,20120,49
0,0.07000000029802322,-0.07999999821186066,9.729999542236328,0,-0.0625,0,31.375,-28.25,-18.875,-0.3962460458278656,-0.004760812036693096,0.007141217589378357,-0.9181042313575745,20130,50
0,0.07000000029802322,-0.07999999821186066,9.720000267028809,0,-0.125,0,31.375,-28.25,-18.875,-0.3962460458278656,-0.004760812036693096,0.007141217589378357,-0.9181042313575745,20140,51
0,0.05000000074505806,-0.09000000357627869,9.729999542236328,0,-0.0625,0,31.375,-28.25,-18.875,-0.3962460458278656,-0.004760812036693096,0.007141217589378357,-0.9181042313575745,20150,52
0,0.03999999910593033,-0.09000000357627869,9.720000267028809,0,0.25,0,29.5,-18.5,-19.25,-0.3962460458278656,-0.004760812036693096,0.007141217589378357,-0.9181042313575745,20161,53
0,0.05000000074505806,-0.07000000029802322,9.729999542236328,0,0,0,29.5,-18.5,-19.25,-0.3962460458278656,-0.004760812036693096,0.007141217589378357,-0.9181042313575745,20171,54
0,0.05999999865889549,-0.05999999865889549,9.699999809265137,0,0.0625,0,29.5,-18.5,-19.25,-0.3962460458278656,-0.004760812036693096,0.007141217589378357,-0.9181042313575745,20181,55
0,0.05999999865889549,-0.10000000149011612,9.729999542236328,0.0625,0.0625,0.0625,29.5,-18.5,-19.25,-0.3962460458278656,-0.004760812036693096,0.007141217589378357,-0.9181042313575745,20190,56
0,0.05000000074505806,-0.07999999821186066,9.760000228881836,0.1875,-0.125,0.125,29.5,-18.5,-19.25,-0.3962460458278656,-0.004760812036693096,0.007141217589378357,-0.9181042313575745,20200,57
0,0.05000000074505806,-0.10000000149011612,9.760000228881836,0.125,-0.0625,0.125,29.875,-26.375,-20.0625,-0.3962460458278656,-0.004760812036693096,0.007141217589378357,-0.9181042313575745,20211,58
0,0.03999999910593033,-0.09000000357627869,9.75,-0.0625,0.125,0,29.875,-26.375,-20.0625,-0.3962460458278656,-0.004760812036693096,0.007141217589378357,-0.9181042313575745,20221,59
0,0.05000000074505806,-0.03999999910593033,9.710000038146973,0.125,0.1875,-0.0625,29.875,-26.375,-20.0625,-0.3962460458278656,-0.004760812036693096,0.007141217589378357,-0.9181042313575745,20231,60
0,0.029999999329447746,-0.07000000029802322,9.710000038146973,0.0625,-0.1875,0,29.875,-26.375,-20.0625,-0.3962460458278656,-0.004760812036693096,0.007141217589378357,-0.9181042313575745,20241,61
0,0.029999999329447746,-0.09000000357627869,9.739999771118164,0.0625,-0.0625,0.0625,29.875,-26.375,-20.0625,-0.3962460458278656,-0.004760812036693096,0.007141217589378357,-0.9181042313575745,20250,62
0,0.03999999910593033,-0.05999999865889549,9.739999771118164,-0.125,-0.0625,0.125,29.875,-27.5,-18.75,-0.3962460458278656,-0.004760812036693096,0.007141217589378357,-0.9181042313575745,20261,63
0,0.07000000029802322,-0.09000000357627869,9.699999809265137,0,-0.125,-0.0625,29.875,-27.5,-18.75,-0.3962460458278656,-0.004760812036693096,0.007141217589378357,-0.9181042313575745,20271,64
0,0.05000000074505806,-0.07999999821186066,9.710000038146973,0.0625,0,-0.0625,29.875,-27.5,-18.75,-0.3962460458278656,-0.004760812036693096,0.007141217589378357,-0.9181042313575745,20281,65
0,0.05000000074505806,-0.07999999821186066,9.760000228881836,0.0625,0,-0.0625,29.875,-27.5,-18.75,-0.3962460458278656,-0.004760812036693096,0.007141217589378357,-0.9181042313575745,20290,66
0,0.07000000029802322,-0.05999999865889549,9.760000228881836,-0.0625,-0.0625,0.0625,29.875,-27.5,-18.75,-0.3962460458278656,-0.004760812036693096,0.007141217589378357,-0.9181042313575745,20300,67
0,0.05999999865889549,-0.07000000029802322,9.720000267028809,-0.0625,-0.25,0,29.1875,-27.875,-19.5625,-0.3962460458278656,-0.004760812036693096,0.007141217589378357,-0.9181042313575745,20311,68
0,0.029999999329447746,-0.10000000149011612,9.739999771118164,0.125,-0.1875,0.0625,29.1875,-27.875,-19.5625,-0.3962460458278656,-0.004760812036693096,0.007141217589378357,-0.9181042313575745,20321,69
0,0.05000000074505806,-0.09000000357627869,9.710000038146973,0,-0.125,0,29.1875,-27.875,-19.5625,-0.3962460458278656,-0.004760812036693096,0.007141217589378357,-0.9181042313575745,20331,70
0,0.05999999865889549,-0.07000000029802322,9.729999542236328,0.125,-0.0625,0,29.1875,-27.875,-19.5625,-0.3962460458278656,-0.004760812036693096,0.007141217589378357,-0.9181042313575745,20341,71
0,0.07000000029802322,-0.07999999821186066,9.739999771118164,0,-0.1875,0.0625,29.1875,-27.875,-19.5625,-0.3962460458278656,-0.004760812036693096,0.007141217589378357,-0.9181042313575745,20350,72
0,0.05000000074505806,-0.09000000357627869,9.75,0.125,-0.25,0.0625,30.6875,-17.375,-18.0625,-0.3962460458278656,-0.004760812036693096,0.007141217589378357,-0.9181042313575745,20361,73
0,0.05999999865889549,-0.09000000357627869,9.739999771118164,-0.0625,0.1875,0,30.6875,-17.375,-18.0625,-0.3962460458278656,-0.004760812036693096,0.007141217589378357,-0.9181042313575745,20371,74
0,0.05999999865889549,-0.07000000029802322,9.710000038146973,0,-0.0625,0,30.6875,-17.375,-18.0625,-0.3962460458278656,-0.004760812036693096,0.007141217589378357,-0.9181042313575745,20381,75
0,0.05999999865889549,-0.07000000029802322,9.739999771118164,-0.0625,-0.0625,0,30.6875,-17.375,-18.0625,-0.3962460458278656,-0.004760812036693096,0.007141217589378357,-0.9181042313575745,20390,76
0,0.05999999865889549,-0.07000000029802322,9.720000267028809,0,-0.125,0.0625,30.6875,-17.375,-18.0625,-0.3962460458278656,-0.004760812036693096,0.007141217589378357,-0.9181042313575745,20400,77
0,0.05000000074505806,-0.05999999865889549,9.729999542236328,0,-0.125,-0.0625,30.25,-30.1875,-19.25,-0.3962460458278656,-0.004760812036693096,0.007141217589378357,-0.9181042313575745,20411,78
0,0.03999999910593033,-0.07000000029802322,9.729999542236328,0.125,-0.0625,0.1875,30.25,-30.1875,-19.25,-0.3962460458278656,-0.004760812036693096,0.007141217589378357,-0.9181042313575745,20421,79
0,0.05000000074505806,-0.07000000029802322,9.729999542236328,-0.0625,0.0625,0.0625,30.25,-30.1875,-19.25,-0.3962460458278656,-0.004760812036693096,0.007141217589378357,-0.9181042313575745,20431,80
0,0.05000000074505806,-0.10000000149011612,9.710000038146973,0.125,0.0625,0,30.25,-30.1875,-19.25,-0.3962460458278656,-0.004760812036693096,0.007141217589378357,-0.9181042313575745,20441,81
0,0.05000000074505806,-0.07999999821186066,9.720000267028809,-0.125,-0.0625,0,30.25,-30.1875,-19.25,-0.3962460458278656,-0.004760812036693096,0.007141217589378357,-0.9181042313575745,20450,82
0,0.05999999865889549,-0.09000000357627869,9.789999961853027,0.0625,0.0625,-0.0625,30.25,-30.5,-18.0625,-0.3962460458278656,-0.004760812036693096,0.007141217589378357,-0.9181042313575745,20461,83
0,0.05000000074505806,-0.07000000029802322,9.739999771118164,0,0.1875,-0.0625,30.25,-30.5,-18.0625,-0.3962460458278656,-0.004760812036693096,0.007141217589378357,-0.9181042313575745,20471,84
0,0.05000000074505806,-0.09000000357627869,9.739999771118164,0,0,0.0625,30.25,-30.5,-18.0625,-0.3962460458278656,-0.004760812036693096,0.007141217589378357,-0.9181042313575745,20481,85
0,0.03999999910593033,-0.09000000357627869,9.760000228881836,0,0,0.0625,30.25,-30.5,-18.0625,-0.3962460458278656,-0.004760812036693096,0.007141217589378357,-0.9181042313575745,20491,86
0,0.05000000074505806,-0.07999999821186066,9.729999542236328,0.0625,-0.0625,0.0625,30.25,-30.5,-18.0625,-0.3962460458278656,-0.004760812036693096,0.007141217589378357,-0.9181042313575745,20500,87
0,0.05000000074505806,-0.07999999821186066,9.739999771118164,-0.0625,0,0.0625,29.875,-28.25,-19.25,-0.3962460458278656,-0.004760812036693096,0.007141217589378357,-0.9181042313575745,20512,88
0,0.05000000074505806,-0.07999999821186066,9.760000228881836,0.0625,0,0.125,29.875,-28.25,-19.25,-0.3962460458278656,-0.004760812036693096,0.007141217589378357,-0.9181042313575745,20521,89
0,0.03999999910593033,-0.07999999821186066,9.739999771118164,0,0.0625,0.0625,29.875,-28.25,-19.25,-0.3962460458278656,-0.004760812036693096,0.007141217589378357,-0.9181042313575745,20532,90
0,0.05000000074505806,-0.07000000029802322,9.720000267028809,0,-0.125,0.125,29.875,-28.25,-19.25,-0.3962460458278656,-0.004760812036693096,0.007141217589378357,-0.9181042313575745,20542,91
0,0.03999999910593033,-0.07999999821186066,9.720000267028809,0,-0.1875,0.0625,29.875,-28.25,-19.25,-0.3962460458278656,-0.004760812036693096,0.007141217589378357,-0.9181042313575745,20550,92
0,0.03999999910593033,-0.07999999821186066,9.770000457763672,-0.125,-0.125,0.0625,29.875,-30.1875,-19.25,-0.3962460458278656,-0.004760812036693096,0.007141217589378357,-0.9181042313575745,20562,93
0,0.05999999865889549,-0.07000000029802322,9.720000267028809,0,-0.125,0,29.875,-30.1875,-19.25,-0.3962460458278656,-0.004760812036693096,0.007141217589378357,-0.9181042313575745,20572,94
0,0.05000000074505806,-0.07999999821186066,9.710000038146973,0,-0.25,0.0625,29.875,-30.1875,-19.25,-0.3962460458278656,-0.004760812036693096,0.007141217589378357,-0.9181042313575745,20582,95
0,0.07999999821186066,-0.07000000029802322,9.729999542236328,-0.0625,0,-0.0625,29.875,-30.1875,-19.25,-0.3962460458278656,-0.004760812036693096,0.007141217589378357,-0.9181042313575745,20591,96
0,0.05000000074505806,-0.07999999821186066,9.739999771118164,0,0,0,29.875,-30.1875,-19.25,-0.3962460458278656,-0.004760812036693096,0.007141217589378357,-0.9181042313575745,20600,97
0,0.05000000074505806,-0.10000000149011612,9.739999771118164,0.125,-0.0625,0.0625,29.875,-28.25,-17.5625,-0.3962460458278656,-0.004760812036693096,0.007141217589378357,-0.9181042313575745,20612,98
0,0.03999999910593033,-0.07000000029802322,9.710000038146973,-0.125,0.0625,-0.0625,29.875,-28.25,-17.5625,-0.3962460458278656,-0.004760812036693096,0.007141217589378357,-0.9181042313575745,20622,99
0,0.05000000074505806,-0.09000000357627869,9.710000038146973,-0.0625,-0.0625,0.1875,29.875,-28.25,-17.5625,-0.3962460458278656,-0.004760812036693096,0.007141217589378357,-0.9181042313575745,20632,100
0,0.05000000074505806,-0.10000000149011612,9.720000267028809,0.125,-0.4375,0.0625,29.875,-28.25,-17.5625,-0.3962460458278656,-0.004760812036693096,0.007141217589378357,-0.9181042313575745,20642,101
0,0.05999999865889549,-0.07999999821186066,9.739999771118164,-0.0625,-0.0625,0.0625,29.875,-28.25,-17.5625,-0.3962460458278656,-0.004760812036693096,0.007141217589378357,-0.9181042313575745,20650,102
0,0.05000000074505806,-0.09000000357627869,9.75,-0.0625,0.0625,-0.125,29.875,-24.875,-20.0625,-0.3962460458278656,-0.004760812036693096,0.007141217589378357,-0.9181042313575745,20662,103
0,0.05999999865889549,-0.07999999821186066,9.710000038146973,-0.0625,0.0625,0.125,29.875,-24.875,-20.0625,-0.3962460458278656,-0.004760812036693096,0.007141217589378357,-0.9181042313575745,20672,104
0,0.029999999329447746,-0.07000000029802322,9.710000038146973,0,0.0625,0,29.875,-24.875,-20.0625,-0.3962460458278656,-0.004760812036693096,0.007141217589378357,-0.9181042313575745,20682,105
0,0.05999999865889549,-0.09000000357627869,9.710000038146973,0,0.125,0,29.875,-24.875,-20.0625,-0.3962460458278656,-0.004760812036693096,0.007141217589378357,-0.9181042313575745,20691,106
0,0.05999999865889549,-0.07999999821186066,9.770000457763672,0.0625,-0.0625,0,29.875,-24.875,-20.0625,-0.3962460458278656,-0.004760812036693096,0.007141217589378357,-0.9181042313575745,20700,107
0,0.029999999329447746,-0.07999999821186066,9.75,0.0625,-0.125,0.0625,30.6875,-27.5,-18.5,-0.3962460458278656,-0.004760812036693096,0.007141217589378357,-0.9181042313575745,20712,108
0,0.05000000074505806,-0.07999999821186066,9.760000228881836,0.125,-0.125,0,30.6875,-27.5,-18.5,-0.3962460458278656,-0.004760812036693096,0.007141217589378357,-0.9181042313575745,20722,109
0,0.029999999329447746,-0.09000000357627869,9.710000038146973,0,0.0625,0.0625,30.6875,-27.5,-18.5,-0.3962460458278656,-0.004760812036693096,0.007141217589378357,-0.9181042313575745,20732,110
0,0.05999999865889549,-0.09000000357627869,9.739999771118164,0,-0.125,0,30.6875,-27.5,-18.5,-0.3962460458278656,-0.004760812036693096,0.007141217589378357,-0.9181042313575745,20742,111
0,0.07000000029802322,-0.05999999865889549,9.739999771118164,0.125,0,-0.0625,30.6875,-27.5,-18.5,-0.3962460458278656,-0.004760812036693096,0.007141217589378357,-0.9181042313575745,20750,112
0,0.05999999865889549,-0.09000000357627869,9.75,0.0625,-0.125,0,29.875,-27.875,-20.5,-0.3962460458278656,-0.004760812036693096,0.007141217589378357,-0.9181042313575745,20762,113
0,0.05000000074505806,-0.07999999821186066,9.720000267028809,-0.0625,-0.0625,0,29.875,-27.875,-20.5,-0.3962460458278656,-0.004760812036693096,0.007141217589378357,-0.9181042313575745,20772,114
0,0.07000000029802322,-0.07000000029802322,9.710000038146973,0.0625,-0.0625,-0.0625,29.875,-27.875,-20.5,-0.3962460458278656,-0.004760812036693096,0.007141217589378357,-0.9181042313575745,20782,115
0,0.05999999865889549,-0.07999999821186066,9.729999542236328,0,-0.125,0,29.875,-27.875,-20.5,-0.3962460458278656,-0.004760812036693096,0.007141217589378357,-0.9181042313575745,20791,116
0,0.03999999910593033,-0.07999999821186066,9.760000228881836,-0.125,0.0625,-0.0625,29.875,-27.875,-20.5,-0.3962460458278656,-0.004760812036693096,0.007141217589378357,-0.9181042313575745,20800,117
0,0.03999999910593033,-0.10000000149011612,9.75,0,0,-0.0625,28.75,-27.1875,-19.5625,-0.3962460458278656,-0.004760812036693096,0.007141217589378357,-0.9181042313575745,20812,118
0,0.05000000074505806,-0.10000000149011612,9.720000267028809,0.125,-0.0625,0.0625,28.75,-27.1875,-19.5625,-0.3962460458278656,-0.004760812036693096,0.007141217589378357,-0.9181042313575745,20822,119
0,0.05000000074505806,-0.09000000357627869,9.670000076293945,-0.125,-0.0625,0.0625,28.75,-27.1875,-19.5625,-0.3962460458278656,-0.004760812036693096,0.007141217589378357,-0.9181042313575745,20832,120
0,0.05000000074505806,-0.05999999865889549,9.739999771118164,0.1875,-0.0625,0,28.75,-27.1875,-19.5625,-0.3962460458278656,-0.004760812036693096,0.007141217589378357,-0.9181042313575745,20842,121
0,0.019999999552965164,-0.07000000029802322,9.739999771118164,0.125,-0.0625,-0.125,28.75,-27.1875,-19.5625,-0.3962460458278656,-0.004760812036693096,0.007141217589378357,-0.9181042313575745,20850,122
0,0.05999999865889549,-0.09000000357627869,9.729999542236328,0.0625,-0.0625,0.0625,30.25,-26.75,-18.0625,-0.3962460458278656,-0.004760812036693096,0.007141217589378357,-0.9181042313575745,20862,123
0,0.03999999910593033,-0.07999999821186066,9.729999542236328,-0.0625,-0.0625,-0.125,30.25,-26.75,-18.0625,-0.3962460458278656,-0.004760812036693096,0.007141217589378357,-0.9181042313575745,20872,124
0,0.019999999552965164,-0.07000000029802322,9.699999809265137,0.0625,0,0,30.25,-26.75,-18.0625,-0.3962460458278656,-0.004760812036693096,0.007141217589378357,-0.9181042313575745,20882,125
0,0.05000000074505806,-0.07999999821186066,9.710000038146973,-0.0625,-0.0625,0.0625,30.25,-26.75,-18.0625,-0.3962460458278656,-0.004760812036693096,0.007141217589378357,-0.9181042313575745,20892,126
0,0.07999999821186066,-0.09000000357627869,9.760000228881836,-0.125,-0.0625,0,30.25,-26.75,-18.0625,-0.3962460458278656,-0.004760812036693096,0.007141217589378357,-0.9181042313575745,20900,127
0,0.05999999865889549,-0.09000000357627869,9.729999542236328,-0.0625,0.0625,0.0625,29.875,-27.5,-20.0625,-0.3962460458278656,-0.004760812036693096,0.007141217589378357,-0.9181042313575745,20912,128
0,0.05999999865889549,-0.07000000029802322,9.710000038146973,0,-0.125,0,29.875,-27.5,-20.0625,-0.3962460458278656,-0.004760812036693096,0.007141217589378357,-0.9181042313575745,20922,129
0,0.03999999910593033,-0.07000000029802322,9.720000267028809,0.125,-0.1875,0,29.875,-27.5,-20.0625,-0.3962460458278656,-0.004760812036693096,0.007141217589378357,-0.9181042313575745,20932,130
0,0.05000000074505806,-0.05999999865889549,9.720000267028809,-0.0625,0.0625,-0.0625,29.875,-27.5,-20.0625,-0.3962460458278656,-0.004760812036693096,0.007141217589378357,-0.9181042313575745,20942,131
0,0.03999999910593033,-0.09000000357627869,9.739999771118164,0.125,0,0,29.875,-27.5,-20.0625,-0.3962460458278656,-0.004760812036693096,0.007141217589378357,-0.9181042313575745,20950,132
0,0.07000000029802322,-0.07999999821186066,9.760000228881836,0.1875,-0.125,0.0625,30.6875,-27.875,-19.25,-0.3962460458278656,-0.004760812036693096,0.007141217589378357,-0.9181042313575745,20963,133
0,0.05000000074505806,-0.07000000029802322,9.729999542236328,-0.0625,-0.125,0.0625,30.6875,-27.875,-19.25,-0.3962460458278656,-0.004760812036693096,0.007141217589378357,-0.9181042313575745,20972,134
0,0.03999999910593033,-0.07999999821186066,9.760000228881836,0.0625,0,0.0625,30.6875,-27.875,-19.25,-0.3962460458278656,-0.004760812036693096,0.007141217589378357,-0.9181042313575745,20983,135
0,0.05999999865889549,-0.07999999821186066,9.729999542236328,0,0,0.0625,30.6875,-27.875,-19.25,-0.3962460458278656,-0.004760812036693096,0.007141217589378357,-0.9181042313575745,20992,136
0,0.05000000074505806,-0.07999999821186066,9.739999771118164,0,0,0,30.6875,-27.875,-19.25,-0.3962460458278656,-0.004760812036693096,0.007141217589378357,-0.9181042313575745,21000,137
0,0.05000000074505806,-0.07999999821186066,9.760000228881836,0,0.125,0.125,28.75,-28.25,-19.25,-0.3962460458278656,-0.004760812036693096,0.007141217589378357,-0.9181042313575745,21013,138
0,0.05000000074505806,-0.07000000029802322,9.75,0.0625,0.125,0,28.75,-28.25,-19.25,-0.3962460458278656,-0.004760812036693096,0.007141217589378357,-0.9181042313575745,21023,139
0,0.07000000029802322,-0.07999999821186066,9.710000038146973,0,-0.125,0.0625,28.75,-28.25,-19.25,-0.3962460458278656,-0.004760812036693096,0.007141217589378357,-0.9181042313575745,21033,140
0,0.03999999910593033,-0.10000000149011612,9.739999771118164,0.0625,-0.0625,-0.0625,28.75,-28.25,-19.25,-0.3962460458278656,-0.004760812036693096,0.007141217589378357,-0.9181042313575745,21043,141
0,0.07000000029802322,-0.10000000149011612,9.739999771118164,0.0625,-0.0625,0.0625,28.75,-28.25,-19.25,-0.3962460458278656,-0.004760812036693096,0.007141217589378357,-0.9181042313575745,21050,142
0,0.05000000074505806,-0.10000000149011612,9.75,0.125,-0.1875,0.125,29.875,-28.25,-19.5625,-0.3962460458278656,-0.004760812036693096,0.007141217589378357,-0.9181042313575745,21063,143
0,0.03999999910593033,-0.10999999940395355,9.729999542236328,-0.0625,0.0625,0,29.875,-28.25,-19.5625,-0.3962460458278656,-0.004760812036693096,0.007141217589378357,-0.9181042313575745,21073,144
0,0.05000000074505806,-0.07000000029802322,9.699999809265137,0,0,0,29.875,-28.25,-19.5625,-0.3962460458278656,-0.004760812036693096,0.007141217589378357,-0.9181042313575745,21083,145
0,0.03999999910593033,-0.07000000029802322,9.710000038146973,0.1875,0.0625,0.0625,29.875,-28.25,-19.5625,-0.3962460458278656,-0.004760812036693096,0.007141217589378357,-0.9181042313575745,21092,146
0,0.05999999865889549,-0.07999999821186066,9.720000267028809,0,0,0,29.875,-28.25,-19.5625,-0.3962460458278656,-0.004760812036693096,0.007141217589378357,-0.9181042313575745,21100,147
0,0.03999999910593033,-0.07999999821186066,9.739999771118164,0,0.0625,0.0625,29.1875,-28.25,-18.75,-0.3962460458278656,-0.004760812036693096,0.007141217589378357,-0.9181042313575745,21113,148
0,0.03999999910593033,-0.07999999821186066,9.760000228881836,-0.0625,-0.0625,0.0625,29.1875,-28.25,-18.75,-0.3962460458278656,-0.004760812036693096,0.007141217589378357,-0.9181042313575745,21123,149
0,0.05000000074505806,-0.10000000149011612,9.720000267028809,0,-0.3125,0.0625,29.1875,-28.25,-18.75,-0.3962460458278656,-0.004760812036693096,0.007141217589378357,-0.9181042313575745,21133,150
0,0.03999999910593033,-0.07999999821186066,9.739999771118164,0,-0.0625,0.1875,29.1875,-28.25,-18.75,-0.3962460458278656,-0.004760812036693096,0.007141217589378357,-0.9181042313575745,21143,151
0,0.05000000074505806,-0.07999999821186066,9.739999771118164,-0.1875,0.25,0,29.1875,-28.25,-18.75,-0.3962460458278656,-0.004760812036693096,0.007141217589378357,-0.9181042313575745,21150,152
0,0.05000000074505806,-0.10000000149011612,9.739999771118164,0.0625,0.1875,-0.0625,29.875,-28.6875,-18.5,-0.3962460458278656,-0.004760812036693096,0.007141217589378357,-0.9181042313575745,21163,153
0,0.05000000074505806,-0.07999999821186066,9.739999771118164,0.0625,0.25,-0.0625,29.875,-28.6875,-18.5,-0.3962460458278656,-0.004760812036693096,0.007141217589378357,-0.9181042313575745,21173,154
0,0.05000000074505806,-0.07999999821186066,9.729999542236328,0.0625,0.0625,0.0625,29.875,-28.6875,-18.5,-0.3962460458278656,-0.004760812036693096,0.007141217589378357,-0.9181042313575745,21183,155
0,0.05999999865889549,-0.07999999821186066,9.739999771118164,0,-0.25,0.0625,29.875,-28.6875,-18.5,-0.3962460458278656,-0.004760812036693096,0.007141217589378357,-0.9181042313575745,21192,156
0,0.05999999865889549,-0.07999999821186066,9.739999771118164,-0.125,-0.0625,0.0625,29.875,-28.6875,-18.5,-0.3962460458278656,-0.004760812036693096,0.007141217589378357,-0.9181042313575745,21200,157
0,0.03999999910593033,-0.09000000357627869,9.729999542236328,-0.0625,-0.0625,0,29.5,-28.6875,-19.25,-0.3962460458278656,-0.004760812036693096,0.007141217589378357,-0.9181042313575745,21213,158
0,0.05999999865889549,-0.07999999821186066,9.729999542236328,0.1875,-0.1875,0,29.5,-28.6875,-19.25,-0.3962460458278656,-0.004760812036693096,0.007141217589378357,-0.9181042313575745,21223,159
0,0.05999999865889549,-0.07999999821186066,9.720000267028809,0,-0.0625,-0.0625,29.5,-28.6875,-19.25,-0.3962460458278656,-0.004760812036693096,0.007141217589378357,-0.9181042313575745,21233,160
0,0.07000000029802322,-0.07999999821186066,9.720000267028809,-0.0625,0.125,-0.125,29.5,-28.6875,-19.25,-0.3962460458278656,-0.004760812036693096,0.007141217589378357,-0.9181042313575745,21243,161
0,0.07000000029802322,-0.09000000357627869,9.739999771118164,0.125,0,0,29.5,-28.6875,-19.25,-0.3962460458278656,-0.004760812036693096,0.007141217589378357,-0.9181042313575745,21250,162
0,0.03999999910593033,-0.09000000357627869,9.729999542236328,-0.125,0.125,-0.0625,29.875,-28.6875,-18.5,-0.3962460458278656,-0.004760812036693096,0.007141217589378357,-0.9181042313575745,21263,163
0,0.05999999865889549,-0.07999999821186066,9.739999771118164,0.0625,-0.1875,-0.125,29.875,-28.6875,-18.5,-0.3962460458278656,-0.004760812036693096,0.007141217589378357,-0.9181042313575745,21273,164
0,0.05000000074505806,-0.09000000357627869,9.720000267028809,0.1875,0,0.0625,29.875,-28.6875,-18.5,-0.3962460458278656,-0.004760812036693096,0.007141217589378357,-0.9181042313575745,21283,165
0,0.029999999329447746,-0.09000000357627869,9.729999542236328,0.0625,-0.25,0,29.875,-28.6875,-18.5,-0.3962460458278656,-0.004760812036693096,0.007141217589378357,-0.9181042313575745,21292,166
0,0.07000000029802322,-0.07999999821186066,9.75,-0.0625,0.0625,-0.125,29.875,-28.6875,-18.5,-0.3962460458278656,-0.004760812036693096,0.007141217589378357,-0.9181042313575745,21300,167
0,0.05999999865889549,-0.07999999821186066,9.760000228881836,0.125,-0.0625,-0.0625,30.25,-28.25,-19.25,-0.3962460458278656,-0.004760812036693096,0.007141217589378357,-0.9181042313575745,21313,168
0,0.05999999865889549,-0.09000000357627869,9.729999542236328,0.125,0.125,-0.0625,30.25,-28.25,-19.25,-0.3962460458278656,-0.004760812036693096,0.007141217589378357,-0.9181042313575745,21323,169
0,0.07000000029802322,-0.09000000357627869,9.699999809265137,0,-0.0625,0.0625,30.25,-28.25,-19.25,-0.3962460458278656,-0.004760812036693096,0.007141217589378357,-0.9181042313575745,21333,170
0,0.05000000074505806,-0.09000000357627869,9.729999542236328,0.125,-0.0625,-0.125,30.25,-28.25,-19.25,-0.3962460458278656,-0.004760812036693096,0.007141217589378357,-0.9181042313575745,21343,171
0,0.05000000074505806,-0.09000000357627869,9.729999542236328,0.125,-0.1875,-0.0625,30.25,-28.25,-19.25,-0.3962460458278656,-0.004760812036693096,0.007141217589378357,-0.9181042313575745,21350,172
0,0.05999999865889549,-0.07999999821186066,9.720000267028809,0.0625,0,-0.125,30.25,-27.875,-20.0625,-0.3962460458278656,-0.004760812036693096,0.007141217589378357,-0.9181042313575745,21363,173
0,0.05000000074505806,-0.09000000357627869,9.710000038146973,0.0625,0,-0.0625,30.25,-27.875,-20.0625,-0.3962460458278656,-0.004760812036693096,0.007141217589378357,-0.9181042313575745,21373,174
0,0.07000000029802322,-0.05999999865889549,9.729999542236328,0.125,-0.1875,0.0625,30.25,-27.875,-20.0625,-0.3962460458278656,-0.004760812036693096,0.007141217589378357,-0.9181042313575745,21383,175
0,0.03999999910593033,-0.07999999821186066,9.720000267028809,0,0,0,30.25,-27.875,-20.0625,-0.3962460458278656,-0.004760812036693096,0.007141217589378357,-0.9181042313575745,21393,176
0,0.07000000029802322,-0.07999999821186066,9.739999771118164,0,-0.0625,-0.0625,30.25,-27.875,-20.0625,-0.3962460458278656,-0.004760812036693096,0.007141217589378357,-0.9181042313575745,21400,177
0,0.05999999865889549,-0.07000000029802322,9.720000267028809,0,0.0625,-0.0625,29.5,-27.5,-19.25,-0.3962460458278656,-0.004760812036693096,0.007141217589378357,-0.9181042313575745,21413,178
0,0.03999999910593033,-0.05999999865889549,9.720000267028809,0.125,-0.125,0,29.5,-27.5,-19.25,-0.3962460458278656,-0.004760812036693096,0.007141217589378357,-0.9181042313575745,21423,179
0,0.05000000074505806,-0.07999999821186066,9.729999542236328,0.125,-0.125,0,29.5,-27.5,-19.25,-0.3962460458278656,-0.004760812036693096,0.007141217589378357,-0.9181042313575745,21433,180
0,0.05000000074505806,-0.07000000029802322,9.710000038146973,-0.1875,0,0,29.5,-27.5,-19.25,-0.3962460458278656,-0.004760812036693096,0.007141217589378357,-0.9181042313575745,21443,181
0,0.03999999910593033,-0.07999999821186066,9.75,0,0,0,29.5,-27.5,-19.25,-0.3962460458278656,-0.004760812036693096,0.007141217589378357,-0.9181042313575745,21450,182
0,0.05000000074505806,-0.07000000029802322,9.710000038146973,0.0625,-0.3125,-0.0625,30.25,-27.5,-18.75,-0.3962460458278656,-0.004760812036693096,0.007141217589378357,-0.9181042313575745,21463,183
0,0.05000000074505806,-0.07000000029802322,9.739999771118164,0.0625,0.125,-0.0625,30.25,-27.5,-18.75,-0.3962460458278656,-0.004760812036693096,0.007141217589378357,-0.9181042313575745,21473,184
0,0.03999999910593033,-0.05999999865889549,9.739999771118164,0.0625,0.25,0.125,30.25,-27.5,-18.75,-0.3962460458278656,-0.004760812036693096,0.007141217589378357,-0.9181042313575745,21483,185
0,0.05999999865889549,-0.09000000357627869,9.770000457763672,0.0625,0.25,0.125,30.25,-27.5,-18.75,-0.3962460458278656,-0.004760812036693096,0.007141217589378357,-0.9181042313575745,21493,186
0,0.03999999910593033,-0.07000000029802322,9.720000267028809,-0.0625,0.1875,-0.125,30.25,-27.5,-18.75,-0.3962460458278656,-0.004760812036693096,0.007141217589378357,-0.9181042313575745,21500,187
0,0.07000000029802322,-0.07000000029802322,9.75,0.0625,-0.0625,-0.0625,29.5,-28.25,-19.5625,-0.3962460458278656,-0.004760812036693096,0.007141217589378357,-0.9181042313575745,21513,188
0,0.05000000074505806,-0.09000000357627869,9.729999542236328,0.125,0.125,-0.0625,29.5,-28.25,-19.5625,-0.3962460458278656,-0.004760812036693096,0.007141217589378357,-0.9181042313575745,21523,189
0,0.05000000074505806,-0.10000000149011612,9.729999542236328,0.0625,-0.125,-0.0625,29.5,-28.25,-19.5625,-0.3962460458278656,-0.004760812036693096,0.007141217589378357,-0.9181042313575745,21533,190
0,0.05999999865889549,-0.07999999821186066,9.710000038146973,0,-0.25,0,29.5,-28.25,-19.5625,-0.3962460458278656,-0.004760812036693096,0.007141217589378357,-0.9181042313575745,21543,191
0,0.029999999329447746,-0.07999999821186066,9.720000267028809,0,-0.25,0,29.5,-28.25,-19.5625,-0.3962460458278656,-0.004760812036693096,0.007141217589378357,-0.9181042313575745,21550,192
0,0.05999999865889549,-0.07000000029802322,9.739999771118164,0,0.0625,-0.0625,29.875,-27.5,-19.25,-0.3962460458278656,-0.004760812036693096,0.007141217589378357,-0.9181042313575745,21563,193
0,0.03999999910593033,-0.07000000029802322,9.739999771118164,0,-0.125,-0.0625,29.875,-27.5,-19.25,-0.3962460458278656,-0.004760812036693096,0.007141217589378357,-0.9181042313575745,21573,194
0,0.09000000357627869,-0.07999999821186066,9.710000038146973,0,0.125,0,29.875,-27.5,-19.25,-0.3962460458278656,-0.004760812036693096,0.007141217589378357,-0.9181042313575745,21583,195
0,0.05999999865889549,-0.09000000357627869,9.710000038146973,0,0.125,0,29.875,-27.5,-19.25,-0.3962460458278656,-0.004760812036693096,0.007141217589378357,-0.9181042313575745,21593,196
0,0.05999999865889549,-0.07999999821186066,9.739999771118164,0.0625,-0.0625,-0.1875,29.875,-27.5,-19.25,-0.3962460458278656,-0.004760812036693096,0.007141217589378357,-0.9181042313575745,21600,197
0,0.05000000074505806,-0.07999999821186066,9.760000228881836,-0.0625,0,-0.125,29.5,-26,-18.5,-0.3962460458278656,-0.004760812036693096,0.007141217589378357,-0.9181042313575745,21613,198
0,0.05999999865889549,-0.07000000029802322,9.739999771118164,-0.0625,0.0625,-0.0625,29.5,-26,-18.5,-0.3962460458278656,-0.004760812036693096,0.007141217589378357,-0.9181042313575745,21623,199
0,0.07000000029802322,-0.07999999821186066,9.710000038146973,0,0.125,0,29.5,-26,-18.5,-0.3962460458278656,-0.004760812036693096,0.007141217589378357,-0.9181042313575745,21633,200
0,0.05999999865889549,-0.09000000357627869,9.729999542236328,0,0.375,-0.125,29.5,-26,-18.5,-0.3962460458278656,-0.004760812036693096,0.007141217589378357,-0.9181042313575745,21643,201
0,0.05999999865889549,-0.07999999821186066,9.729999542236328,0,0.375,-0.125,29.5,-26,-18.5,-0.3962460458278656,-0.004760812036693096,0.007141217589378357,-0.9181042313575745,21650,202
0,0.05999999865889549,-0.07000000029802322,9.720000267028809,0.0625,0,-0.125,30.6875,-27.875,-19.5625,-0.3962460458278656,-0.004760812036693096,0.007141217589378357,-0.9181042313575745,21663,203
0,0.05000000074505806,-0.07999999821186066,9.760000228881836,0,0,0,30.6875,-27.875,-19.5625,-0.3962460458278656,-0.004760812036693096,0.007141217589378357,-0.9181042313575745,21673,204
0,0.05999999865889549,-0.07000000029802322,9.680000305175781,-0.125,0.1875,-0.0625,30.6875,-27.875,-19.5625,-0.3962460458278656,-0.004760812036693096,0.007141217589378357,-0.9181042313575745,21683,205
0,0.05000000074505806,-0.07999999821186066,9.720000267028809,-0.0625,0.1875,-0.0625,30.6875,-27.875,-19.5625,-0.3962460458278656,-0.004760812036693096,0.007141217589378357,-0.9181042313575745,21693,206
0,0.05000000074505806,-0.09000000357627869,9.710000038146973,-0.0625,0.1875,-0.0625,30.6875,-27.875,-19.5625,-0.3962460458278656,-0.004760812036693096,0.007141217589378357,-0.9181042313575745,21700,207
0,0.05000000074505806,-0.09000000357627869,9.760000228881836,-0.125,-0.25,0.0625,29.875,-28.6875,-19.5625,-0.3962460458278656,-0.004760812036693096,0.007141217589378357,-0.9181042313575745,21713,208
0,0.05999999865889549,-0.09000000357627869,9.710000038146973,0.0625,-0.0625,-0.0625,29.875,-28.6875,-19.5625,-0.3962460458278656,-0.004760812036693096,0.007141217589378357,-0.9181042313575745,21723,209
0,0.05999999865889549,-0.09000000357627869,9.770000457763672,0,-0.125,0.0625,29.875,-28.6875,-19.5625,-0.3962460458278656,-0.004760812036693096,0.007141217589378357,-0.9181042313575745,21733,210
0,0.03999999910593033,-0.05999999865889549,9.720000267028809,0.125,-0.0625,0,29.875,-28.6875,-19.5625,-0.3962460458278656,-0.004760812036693096,0.007141217589378357,-0.9181042313575745,21743,211
0,0.05999999865889549,-0.07999999821186066,9.720000267028809,0.125,-0.0625,0,29.875,-28.6875,-19.5625,-0.3962460458278656,-0.004760812036693096,0.007141217589378357,-0.9181042313575745,21750,212
0,0.05000000074505806,-0.10000000149011612,9.699999809265137,0.1875,-0.1875,0,29.875,-27.875,-18.75,-0.3962460458278656,-0.004760812036693096,0.007141217589378357,-0.9181042313575745,21763,213
0,0.03999999910593033,-0.10000000149011612,9.739999771118164,0,-0.0625,0,29.875,-27.875,-18.75,-0.3962460458278656,-0.004760812036693096,0.007141217589378357,-0.9181042313575745,21773,214
0,0.05999999865889549,-0.05999999865889549,9.720000267028809,0,0,-0.125,29.875,-27.875,-18.75,-0.3962460458278656,-0.004760812036693096,0.007141217589378357,-0.9181042313575745,21783,215
0,0.07000000029802322,-0.09000000357627869,9.720000267028809,-0.0625,0.0625,-0.125,29.875,-27.875,-18.75,-0.3962460458278656,-0.004760812036693096,0.007141217589378357,-0.9181042313575745,21793,216
0,0.05999999865889549,-0.07999999821186066,9.729999542236328,-0.0625,0.0625,-0.125,29.875,-27.875,-18.75,-0.3962460458278656,-0.004760812036693096,0.007141217589378357,-0.9181042313575745,21800,217
0,0.05999999865889549,-0.07999999821186066,9.739999771118164,0.0625,0,0.0625,29.5,-29.375,-18.0625,-0.3962460458278656,-0.004760812036693096,0.007141217589378357,-0.9181042313575745,21813,218
0,0.05000000074505806,-0.07999999821186066,9.720000267028809,-0.0625,0.1875,-0.0625,29.5,-29.375,-18.0625,-0.3962460458278656,-0.004760812036693096,0.007141217589378357,-0.9181042313575745,21823,219
0,0.05999999865889549,-0.07000000029802322,9.729999542236328,-0.0625,0.0625,-0.0625,29.5,-29.375,-18.0625,-0.3962460458278656,-0.004760812036693096,0.007141217589378357,-0.9181042313575745,21833,220
0,0.029999999329447746,-0.05999999865889549,9.720000267028809,-0.125,0.0625,0.125,29.5,-29.375,-18.0625,-0.3962460458278656,-0.004760812036693096,0.007141217589378357,-0.9181042313575745,21843,221
0,0.05000000074505806,-0.05000000074505806,9.739999771118164,-0.125,0.0625,0.125,29.5,-29.375,-18.0625,-0.3962460458278656,-0.004760812036693096,0.007141217589378357,-0.9181042313575745,21851,222
0,0.05000000074505806,-0.07999999821186066,9.75,-0.0625,-0.0625,-0.0625,29.1875,-29.375,-18.0625,-0.3962460458278656,-0.004760812036693096,0.007141217589378357,-0.9181042313575745,21863,223
0,0.05000000074505806,-0.07999999821186066,9.720000267028809,-0.125,0,0,29.1875,-29.375,-18.0625,-0.3962460458278656,-0.004760812036693096,0.007141217589378357,-0.9181042313575745,21873,224
0,0.03999999910593033,-0.09000000357627869,9.739999771118164,0,0,-0.0625,29.1875,-29.375,-18.0625,-0.3962460458278656,-0.004760812036693096,0.007141217589378357,-0.9181042313575745,21883,225
0,0.07000000029802322,-0.10000000149011612,9.729999542236328,-0.0625,-0.0625,0,29.1875,-29.375,-18.0625,-0.3962460458278656,-0.004760812036693096,0.007141217589378357,-0.9181042313575745,21893,226
0,0.05999999865889549,-0.07999999821186066,9.739999771118164,-0.0625,-0.0625,0,29.1875,-29.375,-18.0625,-0.3962460458278656,-0.004760812036693096,0.007141217589378357,-0.9181042313575745,21901,227
0,0.03999999910593033,-0.07999999821186066,9.75,0.1875,0,0.0625,29.5,-27.875,-18.875,-0.3962460458278656,-0.004760812036693096,0.007141217589378357,-0.9181042313575745,21913,228
0,0.07000000029802322,-0.09000000357627869,9.720000267028809,0.0625,0.125,0.0625,29.5,-27.875,-18.875,-0.3962460458278656,-0.004760812036693096,0.007141217589378357,-0.9181042313575745,21923,229
0,0.05000000074505806,-0.09000000357627869,9.729999542236328,0,0.0625,-0.0625,29.5,-27.875,-18.875,-0.3962460458278656,-0.004760812036693096,0.007141217589378357,-0.9181042313575745,21933,230
0,0.05999999865889549,-0.07000000029802322,9.710000038146973,0,-0.0625,0.125,29.5,-27.875,-18.875,-0.3962460458278656,-0.004760812036693096,0.007141217589378357,-0.9181042313575745,21943,231
0,0.05000000074505806,-0.09000000357627869,9.75,0,-0.0625,0.125,29.5,-27.875,-18.875,-0.3962460458278656,-0.004760812036693096,0.007141217589378357,-0.9181042313575745,21951,232
0,0.03999999910593033,-0.07999999821186066,9.739999771118164,0.0625,-0.1875,0,29.875,-30.875,-18.875,-0.3962460458278656,-0.004760812036693096,0.007141217589378357,-0.9181042313575745,21963,233
0,0.07000000029802322,-0.07999999821186066,9.720000267028809,0,0.0625,0.0625,29.875,-30.875,-18.875,-0.3962460458278656,-0.004760812036693096,0.007141217589378357,-0.9181042313575745,21973,234
0,0.07000000029802322,-0.07000000029802322,9.720000267028809,0,-0.125,-0.0625,29.875,-30.875,-18.875,-0.3962460458278656,-0.004760812036693096,0.007141217589378357,-0.9181042313575745,21983,235
0,0.03999999910593033,-0.10000000149011612,9.75,0.0625,-0.125,0,29.875,-30.875,-18.875,-0.3962460458278656,-0.004760812036693096,0.007141217589378357,-0.9181042313575745,21993,236
0,0.07000000029802322,-0.09000000357627869,9.75,0.0625,-0.125,0,29.875,-30.875,-18.875,-0.3962460458278656,-0.004760812036693096,0.007141217589378357,-0.9181042313575745,22001,237
0,0.05000000074505806,-0.10000000149011612,9.729999542236328,-0.0625,0,0.0625,29.875,-30.1875,-18.5,-0.3962460458278656,-0.004760812036693096,0.007141217589378357,-0.9181042313575745,22013,238
0,0.05000000074505806,-0.07999999821186066,9.770000457763672,0.0625,-0.0625,0,29.875,-30.1875,-18.5,-0.3962460458278656,-0.004760812036693096,0.007141217589378357,-0.9181042313575745,22023,239
0,0.05000000074505806,-0.05000000074505806,9.710000038146973,0,0.1875,0,29.875,-30.1875,-18.5,-0.3962460458278656,-0.004760812036693096,0.007141217589378357,-0.9181042313575745,22033,240
0,0.05000000074505806,-0.05999999865889549,9.739999771118164,0,-0.125,0,29.875,-30.1875,-18.5,-0.3962460458278656,-0.004760812036693096,0.007141217589378357,-0.9181042313575745,22043,241
0,0.07000000029802322,-0.07000000029802322,9.75,0,-0.125,0,29.875,-30.1875,-18.5,-0.3962460458278656,-0.004760812036693096,0.007141217589378357,-0.9181042313575745,22051,242
0,0.05999999865889549,-0.07999999821186066,9.729999542236328,0.0625,-0.125,0.0625,28.75,-29.75,-18.875,-0.3962460458278656,-0.004760812036693096,0.007141217589378357,-0.9181042313575745,22063,243
0,0.07999999821186066,-0.07999999821186066,9.720000267028809,0,-0.0625,-0.125,28.75,-29.75,-18.875,-0.3962460458278656,-0.004760812036693096,0.007141217589378357,-0.9181042313575745,22073,244
0,0.07000000029802322,-0.07999999821186066,9.720000267028809,-0.0625,-0.0625,0,28.75,-29.75,-18.875,-0.3962460458278656,-0.004760812036693096,0.007141217589378357,-0.9181042313575745,22083,245
0,0.05000000074505806,-0.09000000357627869,9.760000228881836,0,-0.125,-0.0625,28.75,-29.75,-18.875,-0.3962460458278656,-0.004760812036693096,0.007141217589378357,-0.9181042313575745,22093,246
0,0.05000000074505806,-0.07999999821186066,9.75,0,-0.125,-0.0625,28.75,-29.75,-18.875,-0.3962460458278656,-0.004760812036693096,0.007141217589378357,-0.9181042313575745,22101,247
0,0.05999999865889549,-0.05999999865889549,9.6899995803833,0,0.0625,0,28.375,-28.6875,-20.0625,-0.3962460458278656,-0.004760812036693096,0.007141217589378357,-0.9181042313575745,22113,248
0,0.03999999910593033,-0.05999999865889549,9.739999771118164,0,0.125,-0.125,28.375,-28.6875,-20.0625,-0.3962460458278656,-0.004760812036693096,0.007141217589378357,-0.9181042313575745,22123,249
0,0.03999999910593033,-0.09000000357627869,9.710000038146973,0,0.1875,0,28.375,-28.6875,-20.0625,-0.3962460458278656,-0.004760812036693096,0.007141217589378357,-0.9181042313575745,22133,250
0,0.05000000074505806,-0.07999999821186066,9.710000038146973,0.0625,-0.25,0,28.375,-28.6875,-20.0625,-0.3962460458278656,-0.004760812036693096,0.007141217589378357,-0.9181042313575745,22143,251
0,0.05999999865889549,-0.07999999821186066,9.760000228881836,0.0625,-0.25,0,28.375,-28.6875,-20.0625,-0.3962460458278656,-0.004760812036693096,0.007141217589378357,-0.9181042313575745,22151,252
0,0.05999999865889549,-0.09000000357627869,9.720000267028809,-0.0625,0.25,-0.0625,30.6875,-28.6875,-18.75,-0.3962460458278656,-0.004760812036693096,0.007141217589378357,-0.9181042313575745,22162,253
0,0.05999999865889549,-0.07999999821186066,9.739999771118164,0,-0.0625,0.125,30.6875,-28.6875,-18.75,-0.3962460458278656,-0.004760812036693096,0.007141217589378357,-0.9181042313575745,22172,254
0,0.05999999865889549,-0.07999999821186066,9.75,-0.0625,0,0.125,30.6875,-28.6875,-18.75,-0.3962460458278656,-0.004760812036693096,0.007141217589378357,-0.9181042313575745,22182,255
0,0.05000000074505806,-0.07999999821186066,9.720000267028809,0,0,0,30.6875,-28.6875,-18.75,-0.3962460458278656,-0.004760812036693096,0.007141217589378357,-0.9181042313575745,22193,256
0,0.05999999865889549,-0.07999999821186066,9.75,0,0,0,30.6875,-28.6875,-18.75,-0.3962460458278656,-0.004760812036693096,0.007141217589378357,-0.9181042313575745,22201,257
0,0.05999999865889549,-0.05999999865889549,9.739999771118164,0.0625,0.125,0,30.25,-26.375,-19.5625,-0.3962460458278656,-0.004760812036693096,0.007141217589378357,-0.9181042313575745,22212,258
0,0.05999999865889549,-0.10000000149011612,9.739999771118164,0,0.25,-0.125,30.25,-26.375,-19.5625,-0.3962460458278656,-0.004760812036693096,0.007141217589378357,-0.9181042313575745,22222,259
0,0.03999999910593033,-0.07999999821186066,9.729999542236328,-0.0625,0.0625,0,30.25,-26.375,-19.5625,-0.3962460458278656,-0.004760812036693096,0.007141217589378357,-0.9181042313575745,22232,260
0,0.05000000074505806,-0.07000000029802322,9.739999771118164,0.0625,-0.0625,0.0625,30.25,-26.375,-19.5625,-0.3962460458278656,-0.004760812036693096,0.007141217589378357,-0.9181042313575745,22242,261
0,0.05000000074505806,-0.07000000029802322,9.760000228881836,0.0625,-0.0625,0.0625,30.25,-26.375,-19.5625,-0.3962460458278656,-0.004760812036693096,0.007141217589378357,-0.9181042313575745,22251,262
0,0.03999999910593033,-0.10000000149011612,9.729999542236328,-0.0625,0,0,30.25,-28.6875,-19.25,-0.3962460458278656,-0.004760812036693096,0.007141217589378357,-0.9181042313575745,22262,263
0,0.05000000074505806,-0.09000000357627869,9.739999771118164,0.0625,0,0,30.25,-28.6875,-19.25,-0.3962460458278656,-0.004760812036693096,0.007141217589378357,-0.9181042313575745,22272,264
0,0.05999999865889549,-0.07999999821186066,9.699999809265137,-0.0625,0.0625,-0.0625,30.25,-28.6875,-19.25,-0.3962460458278656,-0.004760812036693096,0.007141217589378357,-0.9181042313575745,22282,265
0,0.05000000074505806,-0.10000000149011612,9.720000267028809,-0.0625,-0.125,0.0625,30.25,-28.6875,-19.25,-0.3962460458278656,-0.004760812036693096,0.007141217589378357,-0.9181042313575745,22292,266
0,0.05000000074505806,-0.07999999821186066,9.75,-0.0625,-0.125,0.0625,30.25,-28.6875,-19.25,-0.3962460458278656,-0.004760812036693096,0.007141217589378357,-0.9181042313575745,22301,267
0,0.05000000074505806,-0.07000000029802322,9.75,0,0.0625,0,30.6875,-28.6875,-19.5625,-0.3962460458278656,-0.004760812036693096,0.007141217589378357,-0.9181042313575745,22312,268
0,0.05999999865889549,-0.09000000357627869,9.75,0,0,0,30.6875,-28.6875,-19.5625,-0.3962460458278656,-0.004760812036693096,0.007141217589378357,-0.9181042313575745,22322,269
0,0.07000000029802322,-0.09000000357627869,9.699999809265137,0,0,0,30.6875,-28.6875,-19.5625,-0.3962460458278656,-0.004760812036693096,0.007141217589378357,-0.9181042313575745,22332,270
0,0.03999999910593033,-0.07999999821186066,9.710000038146973,0.125,0,-0.0625,30.6875,-28.6875,-19.5625,-0.3962460458278656,-0.004760812036693096,0.007141217589378357,-0.9181042313575745,22342,271
0,0.029999999329447746,-0.09000000357627869,9.729999542236328,0.125,0,-0.0625,30.6875,-28.6875,-19.5625,-0.3962460458278656,-0.004760812036693096,0.007141217589378357,-0.9181042313575745,22351,272
0,0.05000000074505806,-0.10000000149011612,9.75,0,0,-0.125,29.1875,-27.875,-19.25,-0.3962460458278656,-0.004760812036693096,0.007141217589378357,-0.9181042313575745,22362,273
0,0.029999999329447746,-0.07000000029802322,9.739999771118164,0,0,-0.125,29.1875,-27.875,-19.25,-0.3962460458278656,-0.004760812036693096,0.007141217589378357,-0.9181042313575745,22372,274
0,0.05999999865889549,-0.07999999821186066,9.710000038146973,0.0625,-0.0625,0,29.1875,-27.875,-19.25,-0.3962460458278656,-0.004760812036693096,0.007141217589378357,-0.9181042313575745,22382,275
0,0.05999999865889549,-0.07999999821186066,9.699999809265137,0,-0.0625,0.0625,29.1875,-27.875,-19.25,-0.3962460458278656,-0.004760812036693096,0.007141217589378357,-0.9181042313575745,22392,276
0,0.05000000074505806,-0.09000000357627869,9.729999542236328,0.125,-0.0625,0.0625,29.1875,-27.875,-19.25,-0.3962460458278656,-0.004760812036693096,0.007141217589378357,-0.9181042313575745,22401,277
0,0.05999999865889549,-0.10000000149011612,9.710000038146973,0.125,-0.0625,0.0625,29.875,-30.1875,-18.75,-0.3962460458278656,-0.004760812036693096,0.007141217589378357,-0.9181042313575745,22412,278
0,0.05999999865889549,-0.07999999821186066,9.729999542236328,0.0625,-0.25,0.0625,29.875,-30.1875,-18.75,-0.3962460458278656,-0.004760812036693096,0.007141217589378357,-0.9181042313575745,22422,279
0,0.05000000074505806,-0.07999999821186066,9.720000267028809,0.0625,-0.3125,0,29.875,-30.1875,-18.75,-0.3962460458278656,-0.004760812036693096,0.007141217589378357,-0.9181042313575745,22432,280
0,0.03999999910593033,-0.09000000357627869,9.710000038146973,-0.125,0,0.0625,29.875,-30.1875,-18.75,-0.3962460458278656,-0.004760812036693096,0.007141217589378357,-0.9181042313575745,22442,281
0,0.07000000029802322,-0.07000000029802322,9.760000228881836,0,-0.125,0.125,29.875,-30.1875,-18.75,-0.3962460458278656,-0.004760812036693096,0.007141217589378357,-0.9181042313575745,22451,282
0,0.05999999865889549,-0.09000000357627869,9.760000228881836,0.0625,-0.125,0,29.875,-27.5,-18.5,-0.3962460458278656,-0.004760812036693096,0.007141217589378357,-0.9181042313575745,22462,283
0,0.05999999865889549,-0.10000000149011612,9.739999771118164,-0.0625,0.1875,0,29.875,-27.5,-18.5,-0.3962460458278656,-0.004760812036693096,0.007141217589378357,-0.9181042313575745,22472,284
0,0.03999999910593033,-0.07999999821186066,9.710000038146973,-0.0625,0.125,-0.0625,29.875,-27.5,-18.5,-0.3962460458278656,-0.004760812036693096,0.007141217589378357,-0.9181042313575745,22482,285
0,0.05000000074505806,-0.05999999865889549,9.729999542236328,-0.125,0.0625,0,29.875,-27.5,-18.5,-0.3962460458278656,-0.004760812036693096,0.007141217589378357,-0.9181042313575745,22492,286
0,0.03999999910593033,-0.07999999821186066,9.739999771118164,0,0.125,-0.0625,29.875,-27.5,-18.5,-0.3962460458278656,-0.004760812036693096,0.007141217589378357,-0.9181042313575745,22501,287
0,0.03999999910593033,-0.07000000029802322,9.760000228881836,0.0625,0.1875,0.0625,29.875,-30.875,-18.0625,-0.3962460458278656,-0.004760812036693096,0.007141217589378357,-0.9181042313575745,22512,288
0,0.05000000074505806,-0.09000000357627869,9.75,0.125,-0.0625,-0.125,29.875,-30.875,-18.0625,-0.3962460458278656,-0.004760812036693096,0.007141217589378357,-0.9181042313575745,22522,289
0,0.05999999865889549,-0.10000000149011612,9.699999809265137,-0.125,-0.0625,0.0625,29.875,-30.875,-18.0625,-0.3962460458278656,-0.004760812036693096,0.007141217589378357,-0.9181042313575745,22532,290
0,0.03999999910593033,-0.10000000149011612,9.720000267028809,0,-0.0625,-0.125,29.875,-30.875,-18.0625,-0.3962460458278656,-0.004760812036693096,0.007141217589378357,-0.9181042313575745,22542,291
0,0.05999999865889549,-0.07999999821186066,9.739999771118164,0,-0.0625,0.0625,29.875,-30.875,-18.0625,-0.3962460458278656,-0.004760812036693096,0.007141217589378357,-0.9181042313575745,22551,292
0,0.03999999910593033,-0.09000000357627869,9.75,0.1875,-0.0625,0,28.75,-30.875,-19.5625,-0.3962460458278656,-0.004760812036693096,0.007141217589378357,-0.9181042313575745,22562,293
0,0.05000000074505806,-0.07999999821186066,9.720000267028809,0,0.1875,0,28.75,-30.875,-19.5625,-0.3962460458278656,-0.004760812036693096,0.007141217589378357,-0.9181042313575745,22572,294
0,0.05999999865889549,-0.10000000149011612,9.710000038146973,0.0625,0,-0.0625,28.75,-30.875,-19.5625,-0.3962460458278656,-0.004760812036693096,0.007141217589378357,-0.9181042313575745,22582,295
0,0.03999999910593033,-0.07999999821186066,9.770000457763672,-0.0625,0.0625,0,28.75,-30.875,-19.5625,-0.3962460458278656,-0.004760812036693096,0.007141217589378357,-0.9181042313575745,22592,296
0,0.05000000074505806,-0.07999999821186066,9.729999542236328,0,-0.1875,0,28.75,-30.875,-19.5625,-0.3962460458278656,-0.004760812036693096,0.007141217589378357,-0.9181042313575745,22601,297
0,0.03999999910593033,-0.07999999821186066,9.75,0.125,0,0,29.5,-30.1875,-19.25,-0.3962460458278656,-0.004760812036693096,0.007141217589378357,-0.9181042313575745,22612,298
0,0.05999999865889549,-0.09000000357627869,9.760000228881836,0.125,0.0625,0.0625,29.5,-30.1875,-19.25,-0.3962460458278656,-0.004760812036693096,0.007141217589378357,-0.9181042313575745,22622,299
0,0.07000000029802322,-0.07999999821186066,9.739999771118164,0.125,0.125,0.0625,29.5,-30.1875,-19.25,-0.3962460458278656,-0.004760812036693096,0.007141217589378357,-0.9181042313575745,22632,300
0,0.05000000074505806,-0.10000000149011612,9.720000267028809,0.0625,0.125,-0.0625,29.5,-30.1875,-19.25,-0.3962460458278656,-0.004760812036693096,0.007141217589378357,-0.9181042313575745,22642,301
0,0.029999999329447746,-0.10000000149011612,9.75,-0.0625,0.125,0,29.5,-30.1875,-19.25,-0.3962460458278656,-0.004760812036693096,0.007141217589378357,-0.9181042313575745,22651,302
0,0.03999999910593033,-0.10000000149011612,9.760000228881836,0.0625,0,0,29.875,-30.5,-19.25,-0.3962460458278656,-0.004760812036693096,0.007141217589378357,-0.9181042313575745,22662,303
0,0.05000000074505806,-0.09000000357627869,9.739999771118164,0.125,0,0,29.875,-30.5,-19.25,-0.3962460458278656,-0.004760812036693096,0.007141217589378357,-0.9181042313575745,22672,304
0,0.029999999329447746,-0.10000000149011612,9.710000038146973,-0.1875,-0.0625,0.0625,29.875,-30.5,-19.25,-0.3962460458278656,-0.004760812036693096,0.007141217589378357,-0.9181042313575745,22682,305
0,0.05999999865889549,-0.07999999821186066,9.75,-0.0625,-0.125,-0.0625,29.875,-30.5,-19.25,-0.3962460458278656,-0.004760812036693096,0.007141217589378357,-0.9181042313575745,22692,306
0,0.07000000029802322,-0.09000000357627869,9.720000267028809,0.0625,0.0625,-0.0625,29.875,-30.5,-19.25,-0.3962460458278656,-0.004760812036693096,0.007141217589378357,-0.9181042313575745,22701,307
0,0.05999999865889549,-0.07999999821186066,9.720000267028809,0.125,0.0625,0.0625,29.875,-30.875,-19.5625,-0.3962460458278656,-0.004760812036693096,0.007141217589378357,-0.9181042313575745,22712,308
0,0.03999999910593033,-0.07999999821186066,9.75,0.1875,-0.0625,-0.0625,29.875,-30.875,-19.5625,-0.3962460458278656,-0.004760812036693096,0.007141217589378357,-0.9181042313575745,22722,309
0,0.03999999910593033,-0.07999999821186066,9.710000038146973,0.0625,-0.0625,0,29.875,-30.875,-19.5625,-0.3962460458278656,-0.004760812036693096,0.007141217589378357,-0.9181042313575745,22732,310
0,0.05000000074505806,-0.07000000029802322,9.729999542236328,-0.0625,0.0625,0.125,29.875,-30.875,-19.5625,-0.3962460458278656,-0.004760812036693096,0.007141217589378357,-0.9181042313575745,22742,311
0,0.05000000074505806,-0.07999999821186066,9.729999542236328,0,0,0,29.875,-30.875,-19.5625,-0.3962460458278656,-0.004760812036693096,0.007141217589378357,-0.9181042313575745,22751,312
0,0.05000000074505806,-0.07000000029802322,9.739999771118164,0.0625,0.0625,-0.0625,29.5,-29.375,-19.5625,-0.3962460458278656,-0.004760812036693096,0.007141217589378357,-0.9181042313575745,22762,313
0,0.03999999910593033,-0.05999999865889549,9.760000228881836,0,0.0625,-0.125,29.5,-29.375,-19.5625,-0.3962460458278656,-0.004760812036693096,0.007141217589378357,-0.9181042313575745,22772,314
0,0.05000000074505806,-0.07999999821186066,9.720000267028809,-0.0625,0,0.0625,29.5,-29.375,-19.5625,-0.3962460458278656,-0.004760812036693096,0.007141217589378357,-0.9181042313575745,22782,315
0,0.05999999865889549,-0.07999999821186066,9.710000038146973,-0.0625,-0.0625,-0.0625,29.5,-29.375,-19.5625,-0.3962460458278656,-0.004760812036693096,0.007141217589378357,-0.9181042313575745,22792,316
0,0.05999999865889549,-0.07000000029802322,9.739999771118164,0,-0.0625,0,29.5,-29.375,-19.5625,-0.3962460458278656,-0.004760812036693096,0.007141217589378357,-0.9181042313575745,22801,317
0,0.05000000074505806,-0.07999999821186066,9.729999542236328,-0.125,0.1875,-0.0625,29.875,-29.375,-19.25,-0.3962460458278656,-0.004760812036693096,0.007141217589378357,-0.9181042313575745,22812,318
0,0.03999999910593033,-0.07999999821186066,9.739999771118164,-0.0625,0.0625,0.0625,29.875,-29.375,-19.25,-0.3962460458278656,-0.004760812036693096,0.007141217589378357,-0.9181042313575745,22822,319
0,0.05999999865889549,-0.07999999821186066,9.710000038146973,0.125,-0.3125,0,29.875,-29.375,-19.25,-0.3962460458278656,-0.004760812036693096,0.007141217589378357,-0.9181042313575745,22832,320
0,0.03999999910593033,-0.07000000029802322,9.720000267028809,0,0,0,29.875,-29.375,-19.25,-0.3962460458278656,-0.004760812036693096,0.007141217589378357,-0.9181042313575745,22842,321
0,0.05999999865889549,-0.07999999821186066,9.720000267028809,0,0,0,29.875,-29.375,-19.25,-0.3962460458278656,-0.004760812036693096,0.007141217589378357,-0.9181042313575745,22851,322
0,0.05999999865889549,-0.09000000357627869,9.729999542236328,0,0,-0.0625,29.875,-29.375,-19.25,-0.3962460458278656,-0.004760812036693096,0.007141217589378357,-0.9181042313575745,22862,323
0,0.03999999910593033,-0.07000000029802322,9.699999809265137,0.0625,0.0625,0.0625,29.875,-29.375,-19.25,-0.3962460458278656,-0.004760812036693096,0.007141217589378357,-0.9181042313575745,22872,324
0,0.03999999910593033,-0.10000000149011612,9.720000267028809,-0.125,0.125,0.0625,29.875,-29.375,-19.25,-0.3962460458278656,-0.004760812036693096,0.007141217589378357,-0.9181042313575745,22882,325
0,0.05000000074505806,-0.07999999821186066,9.739999771118164,0,0,0.0625,29.875,-29.375,-19.25,-0.3962460458278656,-0.004760812036693096,0.007141217589378357,-0.9181042313575745,22892,326
0,0.019999999552965164,-0.09000000357627869,9.720000267028809,0.0625,-0.0625,0.0625,29.875,-29.375,-19.25,-0.3962460458278656,-0.004760812036693096,0.007141217589378357,-0.9181042313575745,22901,327
0,0.05999999865889549,-0.09000000357627869,9.760000228881836,0,-0.0625,0,30.6875,-28.25,-17.5625,-0.3962460458278656,-0.004760812036693096,0.007141217589378357,-0.9181042313575745,22912,328
0,0.03999999910593033,-0.07000000029802322,9.75,0,0.125,0,30.6875,-28.25,-17.5625,-0.3962460458278656,-0.004760812036693096,0.007141217589378357,-0.9181042313575745,22922,329
0,0.05000000074505806,-0.07999999821186066,9.739999771118164,-0.125,0.25,0,30.6875,-28.25,-17.5625,-0.3962460458278656,-0.004760812036693096,0.007141217589378357,-0.9181042313575745,22932,330
0,0.05000000074505806,-0.07000000029802322,9.729999542236328,0.0625,-0.0625,0.0625,30.6875,-28.25,-17.5625,-0.3962460458278656,-0.004760812036693096,0.007141217589378357,-0.9181042313575745,22942,331
0,0.029999999329447746,-0.03999999910593033,9.739999771118164,0.0625,-0.125,-0.125,28.375,-26.75,-18.5,-0.3962460458278656,-0.004760812036693096,0.007141217589378357,-0.9181042313575745,22951,332
0,0.03999999910593033,-0.05999999865889549,9.729999542236328,0.125,-0.0625,0.125,28.375,-26.75,-18.5,-0.3962460458278656,-0.004760812036693096,0.007141217589378357,-0.9181042313575745,22962,333
0,0.05999999865889549,-0.07000000029802322,9.720000267028809,-0.125,0.0625,0.0625,28.375,-26.75,-18.5,-0.3962460458278656,-0.004760812036693096,0.007141217589378357,-0.9181042313575745,22972,334
0,0.05000000074505806,-0.09000000357627869,9.720000267028809,0,0,0,28.375,-26.75,-18.5,-0.3962460458278656,-0.004760812036693096,0.007141217589378357,-0.9181042313575745,22982,335
0,0.03999999910593033,-0.07000000029802322,9.760000228881836,-0.0625,-0.0625,0,28.375,-26.75,-18.5,-0.3962460458278656,-0.004760812036693096,0.007141217589378357,-0.9181042313575745,22992,336
0,0.05999999865889549,-0.07999999821186066,9.729999542236328,-0.0625,-0.25,0,29.875,-29,-19.5625,-0.3962460458278656,-0.004760812036693096,0.007141217589378357,-0.9181042313575745,23001,337
0,0.05999999865889549,-0.07999999821186066,9.720000267028809,0,-0.0625,0,29.875,-29,-19.5625,-0.3962460458278656,-0.004760812036693096,0.007141217589378357,-0.9181042313575745,23012,338
0,0.05999999865889549,-0.07999999821186066,9.75,0.125,0,0,29.875,-29,-19.5625,-0.3962460458278656,-0.004760812036693096,0.007141217589378357,-0.9181042313575745,23022,339
0,0.05999999865889549,-0.07000000029802322,9.729999542236328,-0.0625,0.125,0,29.875,-29,-19.5625,-0.3962460458278656,-0.004760812036693096,0.007141217589378357,-0.9181042313575745,23032,340
0,0.05000000074505806,-0.10000000149011612,9.75,0.125,0,0,29.875,-29,-19.5625,-0.3962460458278656,-0.004760812036693096,0.007141217589378357,-0.9181042313575745,23042,341
0,0.03999999910593033,-0.07000000029802322,9.710000038146973,0,0,0,29.875,-28.6875,-19.25,-0.3962460458278656,-0.004760812036693096,0.007141217589378357,-0.9181042313575745,23051,342
0,0.05000000074505806,-0.07000000029802322,9.739999771118164,0,0.0625,-0.0625,29.875,-28.6875,-19.25,-0.3962460458278656,-0.004760812036693096,0.007141217589378357,-0.9181042313575745,23062,343
0,0.07000000029802322,-0.05999999865889549,9.729999542236328,-0.0625,0,-0.125,29.875,-28.6875,-19.25,-0.3962460458278656,-0.004760812036693096,0.007141217589378357,-0.9181042313575745,23071,344
0,0.05999999865889549,-0.10000000149011612,9.729999542236328,0.125,-0.25,0,29.875,-28.6875,-19.25,-0.3962460458278656,-0.004760812036693096,0.007141217589378357,-0.9181042313575745,23081,345
0,0.05999999865889549,-0.09000000357627869,9.720000267028809,-0.1875,-0.0625,-0.0625,29.875,-28.6875,-19.25,-0.3962460458278656,-0.004760812036693096,0.007141217589378357,-0.9181042313575745,23092,346
0,0.05000000074505806,-0.10000000149011612,9.739999771118164,0,-0.125,0.0625,29.875,-29,-18.5,-0.3962460458278656,-0.004760812036693096,0.007141217589378357,-0.9181042313575745,23101,347
0,0.05000000074505806,-0.05000000074505806,9.720000267028809,-0.125,0,-0.0625,29.875,-29,-18.5,-0.3962460458278656,-0.004760812036693096,0.007141217589378357,-0.9181042313575745,23111,348
0,0.05000000074505806,-0.09000000357627869,9.75,0,0.0625,0.0625,29.875,-29,-18.5,-0.3962460458278656,-0.004760812036693096,0.007141217589378357,-0.9181042313575745,23121,349
0,0.07000000029802322,-0.07999999821186066,9.720000267028809,0,-0.0625,0.125,29.875,-29,-18.5,-0.3962460458278656,-0.004760812036693096,0.007141217589378357,-0.9181042313575745,23131,350
0,0.05000000074505806,-0.09000000357627869,9.729999542236328,0.0625,0.125,0,29.875,-29,-18.5,-0.3962460458278656,-0.004760812036693096,0.007141217589378357,-0.9181042313575745,23142,351
0,0.05000000074505806,-0.05999999865889549,9.729999542236328,-0.0625,0.25,0.0625,29.875,-29.75,-17.5625,-0.3962460458278656,-0.004760812036693096,0.007141217589378357,-0.9181042313575745,23151,352
0,0.05000000074505806,-0.07999999821186066,9.760000228881836,0.125,0.0625,-0.125,29.875,-29.75,-17.5625,-0.3962460458278656,-0.004760812036693096,0.007141217589378357,-0.9181042313575745,23161,353
0,0.029999999329447746,-0.07000000029802322,9.739999771118164,0.125,-0.0625,0.125,29.875,-29.75,-17.5625,-0.3962460458278656,-0.004760812036693096,0.007141217589378357,-0.9181042313575745,23172,354
0,0.05000000074505806,-0.05999999865889549,9.710000038146973,0,-0.0625,0.0625,29.875,-29.75,-17.5625,-0.3962460458278656,-0.004760812036693096,0.007141217589378357,-0.9181042313575745,23181,355
0,0.07000000029802322,-0.07999999821186066,9.75,0.125,0,0,29.875,-29.75,-17.5625,-0.3962460458278656,-0.004760812036693096,0.007141217589378357,-0.9181042313575745,23192,356
0,0.03999999910593033,-0.07000000029802322,9.75,0.125,0,0,28.75,-29.75,-18.75,-0.3962460458278656,-0.004760812036693096,0.007141217589378357,-0.9181042313575745,23201,357
0,0.05000000074505806,-0.07999999821186066,9.729999542236328,-0.125,0.125,0.0625,28.75,-29.75,-18.75,-0.3962460458278656,-0.004760812036693096,0.007141217589378357,-0.9181042313575745,23211,358
0,0.05000000074505806,-0.07999999821186066,9.729999542236328,-0.0625,0.0625,-0.0625,28.75,-29.75,-18.75,-0.3962460458278656,-0.004760812036693096,0.007141217589378357,-0.9181042313575745,23221,359
0,0.029999999329447746,-0.07000000029802322,9.699999809265137,0.0625,0,0,28.75,-29.75,-18.75,-0.3962460458278656,-0.004760812036693096,0.007141217589378357,-0.9181042313575745,23231,360
0,0.05000000074505806,-0.09000000357627869,9.729999542236328,0.125,0.0625,0,28.75,-29.75,-18.75,-0.3962460458278656,-0.004760812036693096,0.007141217589378357,-0.9181042313575745,23242,361
0,0.05000000074505806,-0.10000000149011612,9.770000457763672,0.0625,0,0.0625,29.875,-30.1875,-18.5,-0.3962460458278656,-0.004760812036693096,0.007141217589378357,-0.9181042313575745,23251,362
0,0.05999999865889549,-0.07999999821186066,9.720000267028809,0.0625,0.125,-0.125,29.875,-30.1875,-18.5,-0.3962460458278656,-0.004760812036693096,0.007141217589378357,-0.9181042313575745,23261,363
0,0.029999999329447746,-0.07999999821186066,9.739999771118164,0.0625,0.125,0,29.875,-30.1875,-18.5,-0.3962460458278656,-0.004760812036693096,0.007141217589378357,-0.9181042313575745,23271,364
0,0.05999999865889549,-0.07000000029802322,9.699999809265137,0.125,0.1875,0,29.875,-30.1875,-18.5,-0.3962460458278656,-0.004760812036693096,0.007141217589378357,-0.9181042313575745,23281,365
0,0.05999999865889549,-0.07999999821186066,9.710000038146973,-0.0625,0,0.125,29.875,-30.1875,-18.5,-0.3962460458278656,-0.004760812036693096,0.007141217589378357,-0.9181042313575745,23292,366
0,0.03999999910593033,-0.09000000357627869,9.75,0,0.125,0,30.25,-30.5,-18.5,-0.3962460458278656,-0.004760812036693096,0.007141217589378357,-0.9181042313575745,23301,367
0,0.05000000074505806,-0.07000000029802322,9.75,0,0.0625,-0.0625,30.25,-30.5,-18.5,-0.3962460458278656,-0.004760812036693096,0.007141217589378357,-0.9181042313575745,23311,368
0,0.05000000074505806,-0.09000000357627869,9.739999771118164,-0.0625,-0.125,0.0625,30.25,-30.5,-18.5,-0.3962460458278656,-0.004760812036693096,0.007141217589378357,-0.9181042313575745,23321,369
0,0.05000000074505806,-0.05000000074505806,9.720000267028809,-0.125,0.0625,-0.0625,30.25,-30.5,-18.5,-0.3962460458278656,-0.004760812036693096,0.007141217589378357,-0.9181042313575745,23331,370
0,0.07000000029802322,-0.10000000149011612,9.739999771118164,0,-0.0625,0.125,30.25,-30.5,-18.5,-0.3962460458278656,-0.004760812036693096,0.007141217589378357,-0.9181042313575745,23341,371
0,0.07999999821186066,-0.07999999821186066,9.729999542236328,0,0,-0.0625,30.25,-29,-17.25,-0.3962460458278656,-0.004760812036693096,0.007141217589378357,-0.9181042313575745,23351,372
0,0.05000000074505806,-0.09000000357627869,9.739999771118164,0,-0.125,0.0625,30.25,-29,-17.25,-0.3962460458278656,-0.004760812036693096,0.007141217589378357,-0.9181042313575745,23361,373
0,0.03999999910593033,-0.09000000357627869,9.739999771118164,0.0625,-0.1875,0.125,30.25,-29,-17.25,-0.3962460458278656,-0.004760812036693096,0.007141217589378357,-0.9181042313575745,23371,374
0,0.07999999821186066,-0.07999999821186066,9.739999771118164,0.1875,-0.0625,0,30.25,-29,-17.25,-0.3962460458278656,-0.004760812036693096,0.007141217589378357,-0.9181042313575745,23381,375
0,0.05000000074505806,-0.07999999821186066,9.729999542236328,0.0625,0.1875,-0.0625,30.25,-29,-17.25,-0.3962460458278656,-0.004760812036693096,0.007141217589378357,-0.9181042313575745,23391,376
0,0.05000000074505806,-0.09000000357627869,9.729999542236328,0.125,-0.0625,-0.0625,29.1875,-30.1875,-18.0625,-0.3962460458278656,-0.004760812036693096,0.007141217589378357,-0.9181042313575745,23401,377
0,0.03999999910593033,-0.07000000029802322,9.75,-0.125,0.125,0,29.1875,-30.1875,-18.0625,-0.3962460458278656,-0.004760812036693096,0.007141217589378357,-0.9181042313575745,23411,378
0,0.07000000029802322,-0.07000000029802322,9.760000228881836,0,-0.0625,-0.0625,29.1875,-30.1875,-18.0625,-0.3962460458278656,-0.004760812036693096,0.007141217589378357,-0.9181042313575745,23421,379
0,0.05999999865889549,-0.10000000149011612,9.729999542236328,0,-0.1875,-0.125,29.1875,-30.1875,-18.0625,-0.3962460458278656,-0.004760812036693096,0.007141217589378357,-0.9181042313575745,23431,380
0,0.05000000074505806,-0.09000000357627869,9.779999732971191,0,-0.4375,0.0625,29.1875,-30.1875,-18.0625,-0.3962460458278656,-0.004760812036693096,0.007141217589378357,-0.9181042313575745,23441,381
0,0.05999999865889549,-0.07000000029802322,9.760000228881836,0.0625,-0.125,0.0625,29.5,-30.875,-18.5,-0.3962460458278656,-0.004760812036693096,0.007141217589378357,-0.9181042313575745,23451,382
0,0.07000000029802322,-0.09000000357627869,9.75,-0.0625,-0.125,0.0625,29.5,-30.875,-18.5,-0.3962460458278656,-0.004760812036693096,0.007141217589378357,-0.9181042313575745,23461,383
0,0.029999999329447746,-0.09000000357627869,9.75,0.125,0.0625,0,29.5,-30.875,-18.5,-0.3962460458278656,-0.004760812036693096,0.007141217589378357,-0.9181042313575745,23471,384
0,0.05999999865889549,-0.10000000149011612,9.729999542236328,0.0625,-0.0625,-0.0625,29.5,-30.875,-18.5,-0.3962460458278656,-0.004760812036693096,0.007141217589378357,-0.9181042313575745,23481,385
0,0.05000000074505806,-0.07000000029802322,9.770000457763672,0,0.0625,0,29.5,-30.875,-18.5,-0.3962460458278656,-0.004760812036693096,0.007141217589378357,-0.9181042313575745,23491,386
0,0.05999999865889549,-0.09000000357627869,9.739999771118164,0.0625,0.1875,0,29.875,-30.875,-18.875,-0.3962460458278656,-0.004760812036693096,0.007141217589378357,-0.9181042313575745,23501,387
0,0.05999999865889549,-0.10000000149011612,9.739999771118164,0,0,0,29.875,-30.875,-18.875,-0.3962460458278656,-0.004760812036693096,0.007141217589378357,-0.9181042313575745,23511,388
0,0.05000000074505806,-0.09000000357627869,9.739999771118164,-0.0625,0.0625,0.0625,29.875,-30.875,-18.875,-0.3962460458278656,-0.004760812036693096,0.007141217589378357,-0.9181042313575745,23521,389
0,0.03999999910593033,-0.05000000074505806,9.739999771118164,-0.0625,-0.125,0.0625,29.875,-30.875,-18.875,-0.3962460458278656,-0.004760812036693096,0.007141217589378357,-0.9181042313575745,23531,390
0,0.05999999865889549,-0.09000000357627869,9.760000228881836,0,0,0,29.875,-30.875,-18.875,-0.3962460458278656,-0.004760812036693096,0.007141217589378357,-0.9181042313575745,23541,391
0,0.05000000074505806,-0.07999999821186066,9.729999542236328,0.0625,-0.0625,0,31,-28.6875,-18.5,-0.3962460458278656,-0.004760812036693096,0.007141217589378357,-0.9181042313575745,23551,392
0,0.05999999865889549,-0.07000000029802322,9.770000457763672,0.1875,-0.0625,0,31,-28.6875,-18.5,-0.3962460458278656,-0.004760812036693096,0.007141217589378357,-0.9181042313575745,23561,393
0,0.05000000074505806,-0.09000000357627869,9.75,-0.0625,-0.125,0,31,-28.6875,-18.5,-0.3962460458278656,-0.004760812036693096,0.007141217589378357,-0.9181042313575745,23571,394
0,0.03999999910593033,-0.07999999821186066,9.75,0.0625,-0.3125,0,31,-28.6875,-18.5,-0.3962460458278656,-0.004760812036693096,0.007141217589378357,-0.9181042313575745,23581,395
0,0.03999999910593033,-0.07000000029802322,9.760000228881836,0.0625,-0.0625,0.125,31,-28.6875,-18.5,-0.3962460458278656,-0.004760812036693096,0.007141217589378357,-0.9181042313575745,23591,396
0,0.05000000074505806,-0.07000000029802322,9.739999771118164,0.0625,-0.0625,0.0625,29.875,-29,-18.5,-0.3962460458278656,-0.004760812036693096,0.007141217589378357,-0.9181042313575745,23601,397
0,0.03999999910593033,-0.07000000029802322,9.779999732971191,0.0625,-0.0625,-0.0625,29.875,-29,-18.5,-0.3962460458278656,-0.004760812036693096,0.007141217589378357,-0.9181042313575745,23611,398
0,0.03999999910593033,-0.07999999821186066,9.729999542236328,0,-0.125,0,29.875,-29,-18.5,-0.3962460458278656,-0.004760812036693096,0.007141217589378357,-0.9181042313575745,23621,399
0,0.05999999865889549,-0.07999999821186066,9.720000267028809,0.0625,-0.1875,0,29.875,-29,-18.5,-0.3962460458278656,-0.004760812036693096,0.007141217589378357,-0.9181042313575745,23631,400
0,0.07000000029802322,-0.07999999821186066,9.770000457763672,0,-0.125,0,29.875,-29,-18.5,-0.3962460458278656,-0.004760812036693096,0.007141217589378357,-0.9181042313575745,23641,401
0,0.05000000074505806,-0.07000000029802322,9.75,0.0625,-0.0625,0.0625,30.25,-29.375,-18.875,-0.3962460458278656,-0.004760812036693096,0.007141217589378357,-0.9181042313575745,23651,402
0,0.05000000074505806,-0.07999999821186066,9.75,0.0625,-0.125,0.0625,30.25,-29.375,-18.875,-0.3962460458278656,-0.004760812036693096,0.007141217589378357,-0.9181042313575745,23661,403
0,0.03999999910593033,-0.09000000357627869,9.739999771118164,0.0625,-0.125,0,30.25,-29.375,-18.875,-0.3962460458278656,-0.004760812036693096,0.007141217589378357,-0.9181042313575745,23671,404
0,0.05999999865889549,-0.10000000149011612,9.75,-0.125,0,0,30.25,-29.375,-18.875,-0.3962460458278656,-0.004760812036693096,0.007141217589378357,-0.9181042313575745,23681,405
0,0.05999999865889549,-0.09000000357627869,9.760000228881836,-0.0625,-0.1875,0.0625,30.25,-29.375,-18.875,-0.3962460458278656,-0.004760812036693096,0.007141217589378357,-0.9181042313575745,23691,406
0,0.05000000074505806,-0.05999999865889549,9.760000228881836,-0.0625,0.0625,-0.0625,30.25,-29.375,-19.5625,-0.3962460458278656,-0.004760812036693096,0.007141217589378357,-0.9181042313575745,23701,407
0,0.03999999910593033,-0.05999999865889549,9.729999542236328,0.0625,0,0,30.25,-29.375,-19.5625,-0.3962460458278656,-0.004760812036693096,0.007141217589378357,-0.9181042313575745,23711,408
0,0.05999999865889549,-0.07000000029802322,9.710000038146973,0.125,-0.1875,0.125,30.25,-29.375,-19.5625,-0.3962460458278656,-0.004760812036693096,0.007141217589378357,-0.9181042313575745,23721,409
0,0.07000000029802322,-0.07000000029802322,9.75,0.0625,-0.0625,0,30.25,-29.375,-19.5625,-0.3962460458278656,-0.004760812036693096,0.007141217589378357,-0.9181042313575745,23731,410
0,0.05000000074505806,-0.05999999865889549,9.739999771118164,0.125,-0.25,0.125,30.25,-29.375,-19.5625,-0.3962460458278656,-0.004760812036693096,0.007141217589378357,-0.9181042313575745,23741,411
0,0.05000000074505806,-0.09000000357627869,9.75,0.0625,0,0,29.875,-28.6875,-18.75,-0.3962460458278656,-0.004760812036693096,0.007141217589378357,-0.9181042313575745,23751,412
0,0.05000000074505806,-0.09000000357627869,9.770000457763672,0.0625,-0.0625,0.0625,29.875,-28.6875,-18.75,-0.3962460458278656,-0.004760812036693096,0.007141217589378357,-0.9181042313575745,23761,413
0,0.05999999865889549,-0.09000000357627869,9.75,0.0625,-0.0625,-0.0625,29.875,-28.6875,-18.75,-0.3962460458278656,-0.004760812036693096,0.007141217589378357,-0.9181042313575745,23771,414
0,0.03999999910593033,-0.07000000029802322,9.729999542236328,0.0625,0,-0.0625,29.875,-28.6875,-18.75,-0.3962460458278656,-0.004760812036693096,0.007141217589378357,-0.9181042313575745,23781,415
0,0.05999999865889549,-0.07000000029802322,9.75,-0.125,0,0.0625,29.875,-28.6875,-18.75,-0.3962460458278656,-0.004760812036693096,0.007141217589378357,-0.9181042313575745,23791,416
0,0.05000000074505806,-0.07999999821186066,9.739999771118164,0.125,-0.125,0,29.875,-28.6875,-18.75,-0.3962460458278656,-0.004760812036693096,0.007141217589378357,-0.9181042313575745,23801,417
0,0.05000000074505806,-0.07000000029802322,9.75,0,-0.1875,0,29.875,-28.6875,-18.75,-0.3962460458278656,-0.004760812036693096,0.007141217589378357,-0.9181042313575745,23811,418
0,0.05999999865889549,-0.07999999821186066,9.720000267028809,0.0625,-0.125,0.0625,29.875,-28.6875,-18.75,-0.3962460458278656,-0.004760812036693096,0.007141217589378357,-0.9181042313575745,23821,419
0,0.05000000074505806,-0.07000000029802322,9.739999771118164,0.0625,-0.0625,0,29.875,-28.6875,-18.75,-0.3962460458278656,-0.004760812036693096,0.007141217589378357,-0.9181042313575745,23831,420
0,0.03999999910593033,-0.07999999821186066,9.75,0.0625,-0.0625,0,29.875,-28.6875,-18.75,-0.3962460458278656,-0.004760812036693096,0.007141217589378357,-0.9181042313575745,23841,421
0,0.07000000029802322,-0.07000000029802322,9.720000267028809,-0.0625,-0.0625,0.0625,29.5,-29,-17.5625,-0.3962460458278656,-0.004760812036693096,0.007141217589378357,-0.9181042313575745,23851,422
0,0.05999999865889549,-0.09000000357627869,9.760000228881836,-0.125,-0.125,0.0625,29.5,-29,-17.5625,-0.3962460458278656,-0.004760812036693096,0.007141217589378357,-0.9181042313575745,23861,423
0,0.05999999865889549,-0.10000000149011612,9.6899995803833,-0.0625,-0.125,0.0625,29.5,-29,-17.5625,-0.3962460458278656,-0.004760812036693096,0.007141217589378357,-0.9181042313575745,23871,424
0,0.05000000074505806,-0.09000000357627869,9.739999771118164,0,0,0,29.5,-29,-17.5625,-0.3962460458278656,-0.004760812036693096,0.007141217589378357,-0.9181042313575745,23881,425
0,0.03999999910593033,-0.07999999821186066,9.729999542236328,0,0.0625,-0.0625,29.5,-29,-17.5625,-0.3962460458278656,-0.004760812036693096,0.007141217589378357,-0.9181042313575745,23891,426
0,0.05000000074505806,-0.07999999821186066,9.75,0.125,0.125,0.125,30.25,-29.375,-18.75,-0.3962460458278656,-0.004760812036693096,0.007141217589378357,-0.9181042313575745,23901,427
0,0.05999999865889549,-0.10000000149011612,9.720000267028809,-0.0625,0.1875,0,30.25,-29.375,-18.75,-0.3962460458278656,-0.004760812036693096,0.007141217589378357,-0.9181042313575745,23911,428
0,0.029999999329447746,-0.05999999865889549,9.760000228881836,-0.125,0.1875,-0.0625,30.25,-29.375,-18.75,-0.3962460458278656,-0.004760812036693096,0.007141217589378357,-0.9181042313575745,23921,429
0,0.03999999910593033,-0.09000000357627869,9.729999542236328,-0.125,0.125,-0.0625,30.25,-29.375,-18.75,-0.3962460458278656,-0.004760812036693096,0.007141217589378357,-0.9181042313575745,23931,430
0,0.07999999821186066,-0.07999999821186066,9.760000228881836,-0.125,-0.0625,-0.0625,30.25,-29.375,-18.75,-0.3962460458278656,-0.004760812036693096,0.007141217589378357,-0.9181042313575745,23941,431
0,0.05000000074505806,-0.10000000149011612,9.75,-0.0625,-0.0625,0,29.1875,-30.875,-18.75,-0.3962460458278656,-0.004760812036693096,0.007141217589378357,-0.9181042313575745,23951,432
0,0.07000000029802322,-0.09000000357627869,9.739999771118164,-0.125,0.0625,0.0625,29.1875,-30.875,-18.75,-0.3962460458278656,-0.004760812036693096,0.007141217589378357,-0.9181042313575745,23961,433
0,0.07000000029802322,-0.07000000029802322,9.75,-0.25,0.0625,0,29.1875,-30.875,-18.75,-0.3962460458278656,-0.004760812036693096,0.007141217589378357,-0.9181042313575745,23971,434
0,0.05000000074505806,-0.09000000357627869,9.75,-0.0625,-0.125,-0.0625,29.1875,-30.875,-18.75,-0.3962460458278656,-0.004760812036693096,0.007141217589378357,-0.9181042313575745,23981,435
0,0.07000000029802322,-0.09000000357627869,9.75,-0.0625,-0.0625,0,29.1875,-30.875,-18.75,-0.3962460458278656,-0.004760812036693096,0.007141217589378357,-0.9181042313575745,23991,436
0,0.05999999865889549,-0.09000000357627869,9.729999542236328,-0.0625,-0.0625,0.0625,30.6875,-29.75,-18.75,-0.3962460458278656,-0.004760812036693096,0.007141217589378357,-0.9181042313575745,24001,437
0,0.05000000074505806,-0.07999999821186066,9.739999771118164,-0.0625,0.0625,-0.125,30.6875,-29.75,-18.75,-0.3962460458278656,-0.004760812036693096,0.007141217589378357,-0.9181042313575745,24011,438
0,0.03999999910593033,-0.09000000357627869,9.729999542236328,0,0.0625,0,30.6875,-29.75,-18.75,-0.3962460458278656,-0.004760812036693096,0.007141217589378357,-0.9181042313575745,24021,439
0,0.05000000074505806,-0.05999999865889549,9.75,-0.0625,-0.0625,0.0625,30.6875,-29.75,-18.75,-0.3962460458278656,-0.004760812036693096,0.007141217589378357,-0.9181042313575745,24031,440
0,0.05999999865889549,-0.09000000357627869,9.739999771118164,-0.125,0,0,30.6875,-29.75,-18.75,-0.3962460458278656,-0.004760812036693096,0.007141217589378357,-0.9181042313575745,24041,441
0,0.05999999865889549,-0.09000000357627869,9.739999771118164,-0.125,-0.0625,0,29.875,-29.375,-18.75,-0.3962460458278656,-0.004760812036693096,0.007141217589378357,-0.9181042313575745,24051,442
0,0.05999999865889549,-0.07999999821186066,9.729999542236328,-0.0625,0,-0.0625,29.875,-29.375,-18.75,-0.3962460458278656,-0.004760812036693096,0.007141217589378357,-0.9181042313575745,24061,443
0,0.05000000074505806,-0.07999999821186066,9.720000267028809,-0.0625,-0.0625,0,29.875,-29.375,-18.75,-0.3962460458278656,-0.004760812036693096,0.007141217589378357,-0.9181042313575745,24071,444
0,0.029999999329447746,-0.07000000029802322,9.720000267028809,0.0625,-0.0625,0,29.875,-29.375,-18.75,-0.3962460458278656,-0.004760812036693096,0.007141217589378357,-0.9181042313575745,24081,445
0,0.03999999910593033,-0.07999999821186066,9.770000457763672,0,-0.25,0.0625,29.875,-29.375,-18.75,-0.3962460458278656,-0.004760812036693096,0.007141217589378357,-0.9181042313575745,24091,446
0,0.05999999865889549,-0.07999999821186066,9.720000267028809,-0.0625,-0.1875,0.0625,29.5,-30.5,-18.5,-0.3962460458278656,-0.004760812036693096,0.007141217589378357,-0.9181042313575745,24101,447
0,0.05999999865889549,-0.07000000029802322,9.75,0,0.125,0.0625,29.5,-30.5,-18.5,-0.3962460458278656,-0.004760812036693096,0.007141217589378357,-0.9181042313575745,24111,448
0,0.07000000029802322,-0.05999999865889549,9.739999771118164,0,-0.0625,0,29.5,-30.5,-18.5,-0.3962460458278656,-0.004760812036693096,0.007141217589378357,-0.9181042313575745,24121,449
0,0.07000000029802322,-0.10000000149011612,9.739999771118164,-0.0625,0.125,0,29.5,-30.5,-18.5,-0.3962460458278656,-0.004760812036693096,0.007141217589378357,-0.9181042313575745,24131,450
0,0.05000000074505806,-0.09000000357627869,9.739999771118164,-0.0625,-0.1875,-0.0625,29.5,-30.5,-18.5,-0.3962460458278656,-0.004760812036693096,0.007141217589378357,-0.9181042313575745,24141,451
0,0.05999999865889549,-0.05000000074505806,9.779999732971191,0,-0.125,0,29.875,-30.5,-18.75,-0.3962460458278656,-0.004760812036693096,0.007141217589378357,-0.9181042313575745,24151,452
0,0.05000000074505806,-0.09000000357627869,9.75,-0.0625,0,-0.0625,29.875,-30.5,-18.75,-0.3962460458278656,-0.004760812036693096,0.007141217589378357,-0.9181042313575745,24161,453
0,0.029999999329447746,-0.07000000029802322,9.710000038146973,-0.25,-0.125,0,29.875,-30.5,-18.75,-0.3962460458278656,-0.004760812036693096,0.007141217589378357,-0.9181042313575745,24171,454
0,0.03999999910593033,-0.09000000357627869,9.729999542236328,-0.125,0.125,0,29.875,-30.5,-18.75,-0.3962460458278656,-0.004760812036693096,0.007141217589378357,-0.9181042313575745,24181,455
0,0.07999999821186066,-0.09000000357627869,9.729999542236328,0,-0.0625,0.125,29.875,-30.5,-18.75,-0.3962460458278656,-0.004760812036693096,0.007141217589378357,-0.9181042313575745,24191,456
0,0.05000000074505806,-0.10000000149011612,9.770000457763672,-0.0625,-0.1875,0.0625,29.5,-30.875,-18.5,-0.3962460458278656,-0.004760812036693096,0.007141217589378357,-0.9181042313575745,24201,457
0,0.05000000074505806,-0.07000000029802322,9.75,-0.125,-0.0625,-0.0625,29.5,-30.875,-18.5,-0.3962460458278656,-0.004760812036693096,0.007141217589378357,-0.9181042313575745,24211,458
0,0.07000000029802322,-0.09000000357627869,9.729999542236328,0.0625,-0.125,-0.0625,29.5,-30.875,-18.5,-0.3962460458278656,-0.004760812036693096,0.007141217589378357,-0.9181042313575745,24221,459
0,0.05000000074505806,-0.07999999821186066,9.760000228881836,0,-0.0625,0.0625,29.5,-30.875,-18.5,-0.3962460458278656,-0.004760812036693096,0.007141217589378357,-0.9181042313575745,24231,460
0,0.05999999865889549,-0.10000000149011612,9.760000228881836,0.0625,-0.125,0.125,29.5,-30.875,-18.5,-0.3962460458278656,-0.004760812036693096,0.007141217589378357,-0.9181042313575745,24241,461
0,0.05000000074505806,-0.07000000029802322,9.739999771118164,0,-0.1875,-0.0625,31,-29.375,-20.0625,-0.3962460458278656,-0.004760812036693096,0.007141217589378357,-0.9181042313575745,24251,462
0,0.05000000074505806,-0.07999999821186066,9.729999542236328,-0.0625,-0.125,0,31,-29.375,-20.0625,-0.3962460458278656,-0.004760812036693096,0.007141217589378357,-0.9181042313575745,24261,463
0,0.05999999865889549,-0.07000000029802322,9.739999771118164,-0.0625,-0.125,-0.0625,31,-29.375,-20.0625,-0.3962460458278656,-0.004760812036693096,0.007141217589378357,-0.9181042313575745,24271,464
0,0.05000000074505806,-0.09000000357627869,9.789999961853027,-0.1875,-0.25,0.0625,31,-29.375,-20.0625,-0.3962460458278656,-0.004760812036693096,0.007141217589378357,-0.9181042313575745,24280,465
0,0.07000000029802322,-0.07000000029802322,9.75,0.0625,0,-0.0625,31,-29.375,-20.0625,-0.3962460458278656,-0.004760812036693096,0.007141217589378357,-0.9181042313575745,24291,466
0,0.03999999910593033,-0.05999999865889549,9.770000457763672,-0.0625,0.125,0,28.75,-30.1875,-19.5625,-0.3962460458278656,-0.004760812036693096,0.007141217589378357,-0.9181042313575745,24300,467
0,0.05999999865889549,-0.10000000149011612,9.75,0,0,0,28.75,-30.1875,-19.5625,-0.3962460458278656,-0.004760812036693096,0.007141217589378357,-0.9181042313575745,24310,468
0,0.05999999865889549,-0.05000000074505806,9.739999771118164,0,-0.125,0.125,28.75,-30.1875,-19.5625,-0.3962460458278656,-0.004760812036693096,0.007141217589378357,-0.9181042313575745,24320,469
0,0.03999999910593033,-0.07000000029802322,9.779999732971191,-0.0625,-0.0625,0,28.75,-30.1875,-19.5625,-0.3962460458278656,-0.004760812036693096,0.007141217589378357,-0.9181042313575745,24330,470
0,0.03999999910593033,-0.05999999865889549,9.75,-0.0625,0.0625,-0.0625,28.75,-30.1875,-19.5625,-0.3962460458278656,-0.004760812036693096,0.007141217589378357,-0.9181042313575745,24341,471
0,0.05000000074505806,-0.09000000357627869,9.760000228881836,-0.125,0.0625,0,29.875,-26,-18.875,-0.3962460458278656,-0.004760812036693096,0.007141217589378357,-0.9181042313575745,24350,472
0,0.05999999865889549,-0.09000000357627869,9.75,0,0.125,0.0625,29.875,-26,-18.875,-0.3962460458278656,-0.004760812036693096,0.007141217589378357,-0.9181042313575745,24360,473
0,0.05999999865889549,-0.07999999821186066,9.720000267028809,-0.125,-0.0625,0,29.875,-26,-18.875,-0.3962460458278656,-0.004760812036693096,0.007141217589378357,-0.9181042313575745,24370,474
0,0.05000000074505806,-0.09000000357627869,9.760000228881836,0.1875,-0.125,0.0625,29.875,-26,-18.875,-0.3962460458278656,-0.004760812036693096,0.007141217589378357,-0.9181042313575745,24380,475
0,0.05999999865889549,-0.07000000029802322,9.739999771118164,-0.125,0,0,29.875,-26,-18.875,-0.3962460458278656,-0.004760812036693096,0.007141217589378357,-0.9181042313575745,24391,476
0,0.05000000074505806,-0.07000000029802322,9.779999732971191,0.0625,-0.25,0.125,29.5,-28.6875,-19.25,-0.3962460458278656,-0.004760812036693096,0.007141217589378357,-0.9181042313575745,24400,477
0,0.05000000074505806,-0.07999999821186066,9.770000457763672,0.0625,-0.125,0,29.5,-28.6875,-19.25,-0.3962460458278656,-0.004760812036693096,0.007141217589378357,-0.9181042313575745,24410,478
0,0.05999999865889549,-0.07000000029802322,9.760000228881836,0.125,-0.25,0,29.5,-28.6875,-19.25,-0.3962460458278656,-0.004760812036693096,0.007141217589378357,-0.9181042313575745,24420,479
0,0.05999999865889549,-0.07000000029802322,9.75,-0.0625,0.0625,-0.0625,29.5,-28.6875,-19.25,-0.3962460458278656,-0.004760812036693096,0.007141217589378357,-0.9181042313575745,24430,480
0,0.05999999865889549,-0.07999999821186066,9.779999732971191,-0.125,0,-0.0625,29.5,-28.6875,-19.25,-0.3962460458278656,-0.004760812036693096,0.007141217589378357,-0.9181042313575745,24440,481
0,0.05999999865889549,-0.07000000029802322,9.739999771118164,-0.125,-0.125,-0.125,29.5,-29,-19.25,-0.3962460458278656,-0.004760812036693096,0.007141217589378357,-0.9181042313575745,24450,482
0,0.05000000074505806,-0.09000000357627869,9.760000228881836,-0.125,-0.125,0.0625,29.5,-29,-19.25,-0.3962460458278656,-0.004760812036693096,0.007141217589378357,-0.9181042313575745,24460,483
0,0.05000000074505806,-0.07999999821186066,9.710000038146973,0,-0.0625,0,29.5,-29,-19.25,-0.3962460458278656,-0.004760812036693096,0.007141217589378357,-0.9181042313575745,24470,484
0,0.05000000074505806,-0.07999999821186066,9.760000228881836,0,-0.25,0.0625,29.5,-29,-19.25,-0.3962460458278656,-0.004760812036693096,0.007141217589378357,-0.9181042313575745,24480,485
0,0.05000000074505806,-0.07999999821186066,9.739999771118164,-0.125,-0.0625,-0.0625,29.5,-29,-19.25,-0.3962460458278656,-0.004760812036693096,0.007141217589378357,-0.9181042313575745,24491,486
0,0.05000000074505806,-0.07000000029802322,9.779999732971191,-0.125,-0.25,0,29.875,-27.5,-18.5,-0.3962460458278656,-0.004760812036693096,0.007141217589378357,-0.9181042313575745,24500,487
0,0.05999999865889549,-0.07999999821186066,9.729999542236328,0,0,0,29.875,-27.5,-18.5,-0.3962460458278656,-0.004760812036693096,0.007141217589378357,-0.9181042313575745,24510,488
0,0.03999999910593033,-0.07999999821186066,9.729999542236328,-0.0625,0.0625,0.0625,29.875,-27.5,-18.5,-0.3962460458278656,-0.004760812036693096,0.007141217589378357,-0.9181042313575745,24520,489
0,0.05000000074505806,-0.07000000029802322,9.75,-0.125,-0.1875,0.125,29.875,-27.5,-18.5,-0.3962460458278656,-0.004760812036693096,0.007141217589378357,-0.9181042313575745,24530,490
0,0.07000000029802322,-0.10000000149011612,9.729999542236328,-0.125,-0.0625,0.125,29.875,-27.5,-18.5,-0.3962460458278656,-0.004760812036693096,0.007141217589378357,-0.9181042313575745,24540,491
0,0.07000000029802322,-0.07999999821186066,9.720000267028809,-0.0625,0,0.0625,30.25,-29.375,-19.25,-0.3962460458278656,-0.004760812036693096,0.007141217589378357,-0.9181042313575745,24550,492
0,0.05000000074505806,-0.07999999821186066,9.710000038146973,-0.125,0,-0.0625,30.25,-29.375,-19.25,-0.3962460458278656,-0.004760812036693096,0.007141217589378357,-0.9181042313575745,24560,493
0,0.03999999910593033,-0.10000000149011612,9.720000267028809,-0.125,-0.0625,0,30.25,-29.375,-19.25,-0.3962460458278656,-0.004760812036693096,0.007141217589378357,-0.9181042313575745,24570,494
0,0.03999999910593033,-0.05999999865889549,9.739999771118164,-0.125,-0.1875,-0.0625,30.25,-29.375,-19.25,-0.3962460458278656,-0.004760812036693096,0.007141217589378357,-0.9181042313575745,24580,495
0,0.07000000029802322,-0.07999999821186066,9.760000228881836,-0.0625,-0.0625,-0.0625,30.25,-29.375,-19.25,-0.3962460458278656,-0.004760812036693096,0.007141217589378357,-0.9181042313575745,24590,496
0,0.03999999910593033,-0.05999999865889549,9.779999732971191,-0.0625,0,0.0625,29.5,-29,-19.25,-0.3962460458278656,-0.004760812036693096,0.007141217589378357,-0.9181042313575745,24600,497
0,0.05000000074505806,-0.07000000029802322,9.739999771118164,-0.0625,-0.0625,0,29.5,-29,-19.25,-0.3962460458278656,-0.004760812036693096,0.007141217589378357,-0.9181042313575745,24610,498
0,0.03999999910593033,-0.07000000029802322,9.739999771118164,-0.0625,0.0625,-0.0625,29.5,-29,-19.25,-0.3962460458278656,-0.004760812036693096,0.007141217589378357,-0.9181042313575745,24620,499
0,0.05999999865889549,-0.07999999821186066,9.75,-0.0625,0.125,0.0625,29.5,-29,-19.25,-0.3962460458278656,-0.004760812036693096,0.007141217589378357,-0.9181042313575745,24630,500
0,0.05000000074505806,-0.07999999821186066,9.729999542236328,-0.125,0.0625,0,29.5,-29,-19.25,-0.3962460458278656,-0.004760812036693096,0.007141217589378357,-0.9181042313575745,24640,501
0,0.03999999910593033,-0.07000000029802322,9.729999542236328,-0.0625,0.1875,0,29.875,-27.5,-20.0625,-0.3962460458278656,-0.004760812036693096,0.007141217589378357,-0.9181042313575745,24650,502
0,0.05999999865889549,-0.07000000029802322,9.760000228881836,-0.25,0.0625,-0.0625,29.875,-27.5,-20.0625,-0.3962460458278656,-0.004760812036693096,0.007141217589378357,-0.9181042313575745,24660,503
0,0.05000000074505806,-0.09000000357627869,9.720000267028809,0,0.125,0,29.875,-27.5,-20.0625,-0.3962460458278656,-0.004760812036693096,0.007141217589378357,-0.9181042313575745,24670,504
0,0.05999999865889549,-0.05999999865889549,9.75,-0.125,0.0625,0.0625,29.875,-27.5,-20.0625,-0.3962460458278656,-0.004760812036693096,0.007141217589378357,-0.9181042313575745,24680,505
0,0.05999999865889549,-0.07999999821186066,9.739999771118164,0,-0.25,0.125,29.875,-27.5,-20.0625,-0.3962460458278656,-0.004760812036693096,0.007141217589378357,-0.9181042313575745,24690,506
0,0.05999999865889549,-0.07000000029802322,9.75,-0.0625,-0.1875,0,29.875,-29,-19.5625,-0.3962460458278656,-0.004760812036693096,0.007141217589378357,-0.9181042313575745,24700,507
0,0.03999999910593033,-0.07000000029802322,9.770000457763672,0.0625,0,-0.0625,29.875,-29,-19.5625,-0.3962460458278656,-0.004760812036693096,0.007141217589378357,-0.9181042313575745,24710,508
0,0.03999999910593033,-0.07999999821186066,9.729999542236328,-0.0625,0,-0.0625,29.875,-29,-19.5625,-0.3962460458278656,-0.004760812036693096,0.007141217589378357,-0.9181042313575745,24720,509
0,0.07000000029802322,-0.10000000149011612,9.720000267028809,0,-0.1875,0,29.875,-29,-19.5625,-0.3962460458278656,-0.004760812036693096,0.007141217589378357,-0.9181042313575745,24730,510
0,0.03999999910593033,-0.05999999865889549,9.739999771118164,0.0625,-0.1875,-0.0625,29.875,-29,-19.5625,-0.3962460458278656,-0.004760812036693096,0.007141217589378357,-0.9181042313575745,24740,511
0,0.05000000074505806,-0.07999999821186066,9.710000038146973,-0.0625,0.125,0,29.1875,-30.1875,-19.5625,-0.3962460458278656,-0.004760812036693096,0.007141217589378357,-0.9181042313575745,24750,512
0,0.029999999329447746,-0.09000000357627869,9.729999542236328,-0.0625,0.125,-0.0625,29.1875,-30.1875,-19.5625,-0.3962460458278656,-0.004760812036693096,0.007141217589378357,-0.9181042313575745,24760,513
0,0.05999999865889549,-0.07000000029802322,9.75,-0.0625,0.0625,-0.0625,29.1875,-30.1875,-19.5625,-0.3962460458278656,-0.004760812036693096,0.007141217589378357,-0.9181042313575745,24770,514
0,0.05000000074505806,-0.09000000357627869,9.75,0,-0.0625,-0.0625,29.1875,-30.1875,-19.5625,-0.3962460458278656,-0.004760812036693096,0.007141217589378357,-0.9181042313575745,24780,515
0,0.07000000029802322,-0.05999999865889549,9.739999771118164,-0.0625,0,0,29.1875,-30.1875,-19.5625,-0.3962460458278656,-0.004760812036693096,0.007141217589378357,-0.9181042313575745,24790,516
0,0.05000000074505806,-0.10000000149011612,9.729999542236328,0,-0.0625,0,29.875,-29.375,-18.5,-0.3962460458278656,-0.004760812036693096,0.007141217589378357,-0.9181042313575745,24800,517
0,0.07000000029802322,-0.09000000357627869,9.760000228881836,-0.0625,-0.125,0.125,29.875,-29.375,-18.5,-0.3962460458278656,-0.004760812036693096,0.007141217589378357,-0.9181042313575745,24810,518
0,0.03999999910593033,-0.05999999865889549,9.770000457763672,-0.0625,0,0,29.875,-29.375,-18.5,-0.3962460458278656,-0.004760812036693096,0.007141217589378357,-0.9181042313575745,24820,519
0,0.05000000074505806,-0.07000000029802322,9.739999771118164,-0.0625,-0.0625,0,29.875,-29.375,-18.5,-0.3962460458278656,-0.004760812036693096,0.007141217589378357,-0.9181042313575745,24830,520
0,0.05999999865889549,-0.09000000357627869,9.75,-0.0625,-0.0625,0,29.875,-29.375,-18.5,-0.3962460458278656,-0.004760812036693096,0.007141217589378357,-0.9181042313575745,24840,521
0,0.05000000074505806,-0.07000000029802322,9.75,0,-0.0625,0.0625,29.875,-29.375,-19.25,-0.3962460458278656,-0.004760812036693096,0.007141217589378357,-0.9181042313575745,24850,522
0,0.05000000074505806,-0.07000000029802322,9.739999771118164,0.0625,-0.25,0.0625,29.875,-29.375,-19.25,-0.3962460458278656,-0.004760812036693096,0.007141217589378357,-0.9181042313575745,24860,523
0,0.05000000074505806,-0.07999999821186066,9.729999542236328,-0.125,0.0625,0.0625,29.875,-29.375,-19.25,-0.3962460458278656,-0.004760812036693096,0.007141217589378357,-0.9181042313575745,24870,524
0,0.03999999910593033,-0.07999999821186066,9.729999542236328,0.0625,0,0.0625,29.875,-29.375,-19.25,-0.3962460458278656,-0.004760812036693096,0.007141217589378357,-0.9181042313575745,24880,525
0,0.05999999865889549,-0.07999999821186066,9.779999732971191,0.0625,-0.0625,0,29.875,-29.375,-19.25,-0.3962460458278656,-0.004760812036693096,0.007141217589378357,-0.9181042313575745,24890,526
0,0.07000000029802322,-0.07999999821186066,9.760000228881836,0.0625,-0.0625,0,29.1875,-29.375,-18.875,-0.3962460458278656,-0.004760812036693096,0.007141217589378357,-0.9181042313575745,24900,527
0,0.05000000074505806,-0.07999999821186066,9.75,-0.0625,0,0,29.1875,-29.375,-18.875,-0.3962460458278656,-0.004760812036693096,0.007141217589378357,-0.9181042313575745,24910,528
0,0.05000000074505806,-0.07999999821186066,9.710000038146973,0.0625,-0.1875,-0.0625,29.1875,-29.375,-18.875,-0.3962460458278656,-0.004760812036693096,0.007141217589378357,-0.9181042313575745,24920,529
0,0.03999999910593033,-0.10999999940395355,9.729999542236328,-0.0625,0.0625,0.0625,29.1875,-29.375,-18.875,-0.3962460458278656,-0.004760812036693096,0.007141217589378357,-0.9181042313575745,24930,530
0,0.019999999552965164,-0.09000000357627869,9.739999771118164,-0.0625,-0.0625,0,29.1875,-29.375,-18.875,-0.3962460458278656,-0.004760812036693096,0.007141217589378357,-0.9181042313575745,24940,531
0,0.05999999865889549,-0.07999999821186066,9.760000228881836,-0.125,-0.125,0,29.875,-30.5,-18.875,-0.3962460458278656,-0.004760812036693096,0.007141217589378357,-0.9181042313575745,24950,532
0,0.029999999329447746,-0.07000000029802322,9.729999542236328,-0.0625,0.125,0,29.875,-30.5,-18.875,-0.3962460458278656,-0.004760812036693096,0.007141217589378357,-0.9181042313575745,24960,533
0,0.07000000029802322,-0.07999999821186066,9.710000038146973,-0.0625,-0.125,0,29.875,-30.5,-18.875,-0.3962460458278656,-0.004760812036693096,0.007141217589378357,-0.9181042313575745,24970,534
0,0.05000000074505806,-0.07999999821186066,9.720000267028809,-0.125,0,-0.0625,29.875,-30.5,-18.875,-0.3962460458278656,-0.004760812036693096,0.007141217589378357,-0.9181042313575745,24980,535
0,0.03999999910593033,-0.07000000029802322,9.739999771118164,-0.125,-0.125,-0.0625,29.875,-30.5,-18.875,-0.3962460458278656,-0.004760812036693096,0.007141217589378357,-0.9181042313575745,24990,536
0,0.05999999865889549,-0.07999999821186066,9.739999771118164,0,0.0625,0.0625,28.375,-28.6875,-19.5625,-0.3962460458278656,-0.004760812036693096,0.007141217589378357,-0.9181042313575745,25000,537
0,0.05000000074505806,-0.05999999865889549,9.739999771118164,0,0.0625,-0.0625,28.375,-28.6875,-19.5625,-0.3962460458278656,-0.004760812036693096,0.007141217589378357,-0.9181042313575745,25010,538
0,0.05000000074505806,-0.05999999865889549,9.729999542236328,0.125,0.0625,0.125,28.375,-28.6875,-19.5625,-0.3962460458278656,-0.004760812036693096,0.007141217589378357,-0.9181042313575745,25020,539
0,0.05999999865889549,-0.07000000029802322,9.739999771118164,0,0.125,0,28.375,-28.6875,-19.5625,-0.3962460458278656,-0.004760812036693096,0.007141217589378357,-0.9181042313575745,25030,540
0,0.05000000074505806,-0.09000000357627869,9.729999542236328,0.0625,-0.125,0,28.375,-28.6875,-19.5625,-0.3962460458278656,-0.004760812036693096,0.007141217589378357,-0.9181042313575745,25040,541
0,0.03999999910593033,-0.09000000357627869,9.760000228881836,0.0625,0.25,-0.0625,30.25,-28.6875,-18.875,-0.3962460458278656,-0.004760812036693096,0.007141217589378357,-0.9181042313575745,25050,542
0,0.03999999910593033,-0.09000000357627869,9.710000038146973,0.0625,0.125,-0.0625,30.25,-28.6875,-18.875,-0.3962460458278656,-0.004760812036693096,0.007141217589378357,-0.9181042313575745,25060,543
0,0.05000000074505806,-0.09000000357627869,9.739999771118164,0.0625,-0.0625,0,30.25,-28.6875,-18.875,-0.3962460458278656,-0.004760812036693096,0.007141217589378357,-0.9181042313575745,25070,544
0,0.029999999329447746,-0.07999999821186066,9.75,0,0.0625,0,30.25,-28.6875,-18.875,-0.3962460458278656,-0.004760812036693096,0.007141217589378357,-0.9181042313575745,25080,545
0,0.03999999910593033,-0.10000000149011612,9.789999961853027,0,0.0625,0,30.25,-28.6875,-18.875,-0.3962460458278656,-0.004760812036693096,0.007141217589378357,-0.9181042313575745,25090,546
0,0.03999999910593033,-0.07999999821186066,9.739999771118164,-0.0625,-0.125,-0.0625,30.25,-25.6875,-19.25,-0.3962460458278656,-0.004760812036693096,0.007141217589378357,-0.9181042313575745,25100,547
0,0.05000000074505806,-0.10000000149011612,9.75,0,-0.125,0,30.25,-25.6875,-19.25,-0.3962460458278656,-0.004760812036693096,0.007141217589378357,-0.9181042313575745,25110,548
0,0.05000000074505806,-0.10000000149011612,9.710000038146973,0.125,0,0.125,30.25,-25.6875,-19.25,-0.3962460458278656,-0.004760812036693096,0.007141217589378357,-0.9181042313575745,25120,549
0,0.07000000029802322,-0.07999999821186066,9.729999542236328,-0.125,-0.0625,-0.0625,30.25,-25.6875,-19.25,-0.3962460458278656,-0.004760812036693096,0.007141217589378357,-0.9181042313575745,25130,550
0,0.05999999865889549,-0.09000000357627869,9.75,0.0625,-0.3125,0.0625,30.25,-25.6875,-19.25,-0.3962460458278656,-0.004760812036693096,0.007141217589378357,-0.9181042313575745,25140,551
0,0.03999999910593033,-0.07999999821186066,9.760000228881836,0,-0.125,0,29.1875,-27.5,-19.5625,-0.3962460458278656,-0.004760812036693096,0.007141217589378357,-0.9181042313575745,25150,552
0,0.05999999865889549,-0.09000000357627869,9.729999542236328,0.0625,0,0,29.1875,-27.5,-19.5625,-0.3962460458278656,-0.004760812036693096,0.007141217589378357,-0.9181042313575745,25160,553
0,0.05999999865889549,-0.09000000357627869,9.720000267028809,0,0.0625,-0.0625,29.1875,-27.5,-19.5625,-0.3962460458278656,-0.004760812036693096,0.007141217589378357,-0.9181042313575745,25170,554
0,0.07000000029802322,-0.09000000357627869,9.729999542236328,-0.0625,0.0625,0,29.1875,-27.5,-19.5625,-0.3962460458278656,-0.004760812036693096,0.007141217589378357,-0.9181042313575745,25180,555
0,0.05000000074505806,-0.10000000149011612,9.739999771118164,-0.0625,0.1875,-0.125,29.1875,-27.5,-19.5625,-0.3962460458278656,-0.004760812036693096,0.007141217589378357,-0.9181042313575745,25190,556
0,0.029999999329447746,-0.07000000029802322,9.770000457763672,-0.0625,-0.125,0,29.875,-28.6875,-19.5625,-0.3962460458278656,-0.004760812036693096,0.007141217589378357,-0.9181042313575745,25200,557
0,0.07000000029802322,-0.07000000029802322,9.710000038146973,0,0,-0.125,29.875,-28.6875,-19.5625,-0.3962460458278656,-0.004760812036693096,0.007141217589378357,-0.9181042313575745,25210,558
0,0.05000000074505806,-0.07999999821186066,9.710000038146973,0,0,0.0625,29.875,-28.6875,-19.5625,-0.3962460458278656,-0.004760812036693096,0.007141217589378357,-0.9181042313575745,25220,559
0,0.05999999865889549,-0.07000000029802322,9.729999542236328,-0.0625,0.125,0.0625,29.875,-28.6875,-19.5625,-0.3962460458278656,-0.004760812036693096,0.007141217589378357,-0.9181042313575745,25230,560
0,0.05000000074505806,-0.07000000029802322,9.75,0.0625,-0.0625,-0.0625,29.875,-28.6875,-19.5625,-0.3962460458278656,-0.004760812036693096,0.007141217589378357,-0.9181042313575745,25240,561
0,0.05000000074505806,-0.09000000357627869,9.739999771118164,0.125,-0.125,0.0625,29.875,-26.75,-20.5,-0.3962460458278656,-0.004760812036693096,0.007141217589378357,-0.9181042313575745,25250,562
0,0.07000000029802322,-0.09000000357627869,9.739999771118164,0.1875,0,0,29.875,-26.75,-20.5,-0.3962460458278656,-0.004760812036693096,0.007141217589378357,-0.9181042313575745,25260,563
0,0.05000000074505806,-0.10000000149011612,9.739999771118164,0.125,0.125,0,29.875,-26.75,-20.5,-0.3962460458278656,-0.004760812036693096,0.007141217589378357,-0.9181042313575745,25270,564
0,0.03999999910593033,-0.07000000029802322,9.739999771118164,0,-0.0625,-0.0625,29.875,-26.75,-20.5,-0.3962460458278656,-0.004760812036693096,0.007141217589378357,-0.9181042313575745,25280,565
0,0.05000000074505806,-0.07999999821186066,9.75,-0.0625,0.1875,0,29.875,-26.75,-20.5,-0.3962460458278656,-0.004760812036693096,0.007141217589378357,-0.9181042313575745,25290,566
0,0.05999999865889549,-0.05999999865889549,9.75,-0.0625,0.1875,0.0625,29.5,-27.875,-18.75,-0.3962460458278656,-0.004760812036693096,0.007141217589378357,-0.9181042313575745,25300,567
0,0.05000000074505806,-0.07000000029802322,9.760000228881836,0,0.0625,-0.0625,29.5,-27.875,-18.75,-0.3962460458278656,-0.004760812036693096,0.007141217589378357,-0.9181042313575745,25310,568
0,0.05999999865889549,-0.07000000029802322,9.710000038146973,-0.125,0.125,0.0625,29.5,-27.875,-18.75,-0.3962460458278656,-0.004760812036693096,0.007141217589378357,-0.9181042313575745,25320,569
0,0.05000000074505806,-0.10000000149011612,9.729999542236328,0.0625,0,0,29.5,-27.875,-18.75,-0.3962460458278656,-0.004760812036693096,0.007141217589378357,-0.9181042313575745,25330,570
0,0.05000000074505806,-0.07999999821186066,9.760000228881836,0.0625,-0.0625,0.0625,29.5,-27.875,-18.75,-0.3962460458278656,-0.004760812036693096,0.007141217589378357,-0.9181042313575745,25340,571
0,0.019999999552965164,-0.07999999821186066,9.739999771118164,0.125,0,0.0625,29.875,-28.6875,-20.0625,-0.3962460458278656,-0.004760812036693096,0.007141217589378357,-0.9181042313575745,25350,572
0,0.03999999910593033,-0.10000000149011612,9.739999771118164,0,-0.0625,0,29.875,-28.6875,-20.0625,-0.3962460458278656,-0.004760812036693096,0.007141217589378357,-0.9181042313575745,25360,573
0,0.07999999821186066,-0.05000000074505806,9.729999542236328,-0.0625,0.0625,-0.0625,29.875,-28.6875,-20.0625,-0.3962460458278656,-0.004760812036693096,0.007141217589378357,-0.9181042313575745,25370,574
0,0.05999999865889549,-0.07999999821186066,9.739999771118164,0.125,0,0.0625,29.875,-28.6875,-20.0625,-0.3962460458278656,-0.004760812036693096,0.007141217589378357,-0.9181042313575745,25380,575
0,0.029999999329447746,-0.05000000074505806,9.729999542236328,0,-0.125,0,29.875,-28.6875,-20.0625,-0.3962460458278656,-0.004760812036693096,0.007141217589378357,-0.9181042313575745,25390,576
0,0.07999999821186066,-0.07000000029802322,9.760000228881836,-0.0625,0.3125,-0.0625,29.875,-28.25,-18.0625,-0.3962460458278656,-0.004760812036693096,0.007141217589378357,-0.9181042313575745,25400,577
0,0.05999999865889549,-0.07999999821186066,9.739999771118164,-0.0625,0,0,29.875,-28.25,-18.0625,-0.3962460458278656,-0.004760812036693096,0.007141217589378357,-0.9181042313575745,25410,578
0,0.03999999910593033,-0.09000000357627869,9.75,0.125,0,0,29.875,-28.25,-18.0625,-0.3962460458278656,-0.004760812036693096,0.007141217589378357,-0.9181042313575745,25420,579
0,0.05999999865889549,-0.07999999821186066,9.739999771118164,0.125,-0.0625,0,29.875,-28.25,-18.0625,-0.3962460458278656,-0.004760812036693096,0.007141217589378357,-0.9181042313575745,25430,580
0,0.05999999865889549,-0.07999999821186066,9.75,0,0.1875,0,29.875,-28.25,-18.0625,-0.3962460458278656,-0.004760812036693096,0.007141217589378357,-0.9181042313575745,25440,581
0,0.05999999865889549,-0.07999999821186066,9.75,0.1875,-0.25,0.1875,31,-24.875,-18.5,-0.3962460458278656,-0.004760812036693096,0.007141217589378357,-0.9181042313575745,25450,582
0,0.03999999910593033,-0.07000000029802322,9.739999771118164,0.1875,-0.25,0.1875,31,-24.875,-18.5,-0.3962460458278656,-0.004760812036693096,0.007141217589378357,-0.9181042313575745,25460,583
0,0.05000000074505806,-0.07999999821186066,9.729999542236328,-0.0625,0,0,31,-24.875,-18.5,-0.3962460458278656,-0.004760812036693096,0.007141217589378357,-0.9181042313575745,25470,584
0,0.05999999865889549,-0.07000000029802322,9.729999542236328,0,0,-0.125,31,-24.875,-18.5,-0.3962460458278656,-0.004760812036693096,0.007141217589378357,-0.9181042313575745,25480,585
0,0.05000000074505806,-0.07999999821186066,9.739999771118164,0,-0.0625,0,31,-24.875,-18.5,-0.3962460458278656,-0.004760812036693096,0.007141217589378357,-0.9181042313575745,25490,586
0,0.05000000074505806,-0.09000000357627869,9.770000457763672,0.125,-0.0625,0,29.875,-28.6875,-19.5625,-0.3962460458278656,-0.004760812036693096,0.007141217589378357,-0.9181042313575745,25500,587
0,0.05000000074505806,-0.09000000357627869,9.770000457763672,0.125,-0.0625,0,29.875,-28.6875,-19.5625,-0.3962460458278656,-0.004760812036693096,0.007141217589378357,-0.9181042313575745,25510,588
0,0.029999999329447746,-0.07000000029802322,9.760000228881836,-0.125,0.1875,0,29.875,-28.6875,-19.5625,-0.3962460458278656,-0.004760812036693096,0.007141217589378357,-0.9181042313575745,25520,589
0,0.05000000074505806,-0.05999999865889549,9.739999771118164,0,0.1875,-0.0625,29.875,-28.6875,-19.5625,-0.3962460458278656,-0.004760812036693096,0.007141217589378357,-0.9181042313575745,25530,590
0,0.03999999910593033,-0.07999999821186066,9.739999771118164,0.125,-0.1875,0,29.875,-28.6875,-19.5625,-0.3962460458278656,-0.004760812036693096,0.007141217589378357,-0.9181042313575745,25540,591
0,0.07999999821186066,-0.09000000357627869,9.75,0.0625,-0.125,0.0625,30.6875,-29.375,-19.5625,-0.3962460458278656,-0.004760812036693096,0.007141217589378357,-0.9181042313575745,25550,592
0,0.05000000074505806,-0.07999999821186066,9.770000457763672,0,0.0625,-0.0625,30.6875,-29.375,-19.5625,-0.3962460458278656,-0.004760812036693096,0.007141217589378357,-0.9181042313575745,25560,593
0,0.05999999865889549,-0.07999999821186066,9.729999542236328,0.0625,-0.0625,0.0625,30.6875,-29.375,-19.5625,-0.3962460458278656,-0.004760812036693096,0.007141217589378357,-0.9181042313575745,25570,594
0,0.05000000074505806,-0.07000000029802322,9.729999542236328,0.0625,0.1875,-0.125,30.6875,-29.375,-19.5625,-0.3962460458278656,-0.004760812036693096,0.007141217589378357,-0.9181042313575745,25580,595
0,0.05999999865889549,-0.09000000357627869,9.770000457763672,0,0.0625,0.125,30.6875,-29.375,-19.5625,-0.3962460458278656,-0.004760812036693096,0.007141217589378357,-0.9181042313575745,25590,596
0,0.03999999910593033,-0.07999999821186066,9.75,-0.0625,0.1875,0.0625,29.875,-29,-20.0625,-0.3962460458278656,-0.004760812036693096,0.007141217589378357,-0.9181042313575745,25600,597
0,0.03999999910593033,-0.09000000357627869,9.739999771118164,-0.0625,0.125,0.0625,29.875,-29,-20.0625,-0.3962460458278656,-0.004760812036693096,0.007141217589378357,-0.9181042313575745,25610,598
0,0.05999999865889549,-0.10000000149011612,9.729999542236328,0.0625,0,-0.0625,29.875,-29,-20.0625,-0.3962460458278656,-0.004760812036693096,0.007141217589378357,-0.9181042313575745,25620,599
0,0.05999999865889549,-0.07999999821186066,9.739999771118164,0.0625,0.0625,-0.125,29.875,-29,-20.0625,-0.3962460458278656,-0.004760812036693096,0.007141217589378357,-0.9181042313575745,25630,600
0,0.07999999821186066,-0.10000000149011612,9.739999771118164,-0.0625,-0.0625,0.0625,29.875,-29,-20.0625,-0.3962460458278656,-0.004760812036693096,0.007141217589378357,-0.9181042313575745,25640,601
0,0.03999999910593033,-0.07999999821186066,9.75,0.0625,0.0625,0,29.1875,-29.375,-18.875,-0.3962460458278656,-0.004760812036693096,0.007141217589378357,-0.9181042313575745,25650,602
0,0.03999999910593033,-0.07000000029802322,9.75,0,0.25,0,29.1875,-29.375,-18.875,-0.3962460458278656,-0.004760812036693096,0.007141217589378357,-0.9181042313575745,25660,603
0,0.05999999865889549,-0.07000000029802322,9.729999542236328,-0.0625,0.0625,-0.0625,29.1875,-29.375,-18.875,-0.3962460458278656,-0.004760812036693096,0.007141217589378357,-0.9181042313575745,25670,604
0,0.05000000074505806,-0.07999999821186066,9.75,0.0625,0.25,-0.0625,29.1875,-29.375,-18.875,-0.3962460458278656,-0.004760812036693096,0.007141217589378357,-0.9181042313575745,25680,605
0,0.03999999910593033,-0.07999999821186066,9.760000228881836,0.0625,0,0,29.1875,-29.375,-18.875,-0.3962460458278656,-0.004760812036693096,0.007141217589378357,-0.9181042313575745,25690,606
0,0.05000000074505806,-0.05999999865889549,9.75,0.0625,0.125,0.0625,30.25,-29,-20.0625,-0.3962460458278656,-0.004760812036693096,0.007141217589378357,-0.9181042313575745,25700,607
0,0.03999999910593033,-0.09000000357627869,9.770000457763672,0,0,0.0625,30.25,-29,-20.0625,-0.3962460458278656,-0.004760812036693096,0.007141217589378357,-0.9181042313575745,25710,608
0,0.05000000074505806,-0.09000000357627869,9.729999542236328,-0.0625,0.0625,-0.0625,30.25,-29,-20.0625,-0.3962460458278656,-0.004760812036693096,0.007141217589378357,-0.9181042313575745,25720,609
0,0.03999999910593033,-0.07999999821186066,9.729999542236328,0.125,0,0,30.25,-29,-20.0625,-0.3962460458278656,-0.004760812036693096,0.007141217589378357,-0.9181042313575745,25730,610
0,0.03999999910593033,-0.07999999821186066,9.75,-0.0625,0.1875,-0.125,30.25,-29,-20.0625,-0.3962460458278656,-0.004760812036693096,0.007141217589378357,-0.9181042313575745,25740,611
0,0.03999999910593033,-0.07000000029802322,9.75,0,0.0625,0.0625,30.25,-29,-19.25,-0.3962460458278656,-0.004760812036693096,0.007141217589378357,-0.9181042313575745,25750,612
0,0.03999999910593033,-0.10000000149011612,9.729999542236328,-0.0625,0.0625,0.0625,30.25,-29,-19.25,-0.3962460458278656,-0.004760812036693096,0.007141217589378357,-0.9181042313575745,25760,613
0,0.05999999865889549,-0.07000000029802322,9.729999542236328,0.0625,0.3125,-0.0625,30.25,-29,-19.25,-0.3962460458278656,-0.004760812036693096,0.007141217589378357,-0.9181042313575745,25770,614
0,0.05999999865889549,-0.05000000074505806,9.75,-0.0625,0.0625,0.0625,30.25,-29,-19.25,-0.3962460458278656,-0.004760812036693096,0.007141217589378357,-0.9181042313575745,25780,615
0,0.05000000074505806,-0.07000000029802322,9.760000228881836,0.125,-0.25,0.125,30.25,-29,-19.25,-0.3962460458278656,-0.004760812036693096,0.007141217589378357,-0.9181042313575745,25790,616
0,0.07000000029802322,-0.07000000029802322,9.720000267028809,0.125,0.0625,-0.0625,29.5,-27.875,-18.75,-0.3962460458278656,-0.004760812036693096,0.007141217589378357,-0.9181042313575745,25800,617
0,0.03999999910593033,-0.07000000029802322,9.739999771118164,0.125,0,0.125,29.5,-27.875,-18.75,-0.3962460458278656,-0.004760812036693096,0.007141217589378357,-0.9181042313575745,25810,618
0,0.07000000029802322,-0.07000000029802322,9.720000267028809,0,0,0.0625,29.5,-27.875,-18.75,-0.3962460458278656,-0.004760812036693096,0.007141217589378357,-0.9181042313575745,25820,619
0,0.03999999910593033,-0.07000000029802322,9.739999771118164,-0.0625,0.1875,0,29.5,-27.875,-18.75,-0.3962460458278656,-0.004760812036693096,0.007141217589378357,-0.9181042313575745,25830,620
0,0.05000000074505806,-0.07000000029802322,9.760000228881836,0.125,0.125,0.0625,29.5,-27.875,-18.75,-0.3962460458278656,-0.004760812036693096,0.007141217589378357,-0.9181042313575745,25840,621
0,0.05000000074505806,-0.09000000357627869,9.760000228881836,0.125,-0.0625,-0.0625,29.875,-27.1875,-19.5625,-0.3962460458278656,-0.004760812036693096,0.007141217589378357,-0.9181042313575745,25850,622
0,0.05999999865889549,-0.07999999821186066,9.739999771118164,0.0625,0.0625,0.0625,29.875,-27.1875,-19.5625,-0.3962460458278656,-0.004760812036693096,0.007141217589378357,-0.9181042313575745,25860,623
0,0.07999999821186066,-0.09000000357627869,9.720000267028809,0.0625,0.0625,0,29.875,-27.1875,-19.5625,-0.3962460458278656,-0.004760812036693096,0.007141217589378357,-0.9181042313575745,25870,624
0,0.03999999910593033,-0.07000000029802322,9.739999771118164,0.0625,0.0625,0,29.875,-27.1875,-19.5625,-0.3962460458278656,-0.004760812036693096,0.007141217589378357,-0.9181042313575745,25880,625
0,0.029999999329447746,-0.07999999821186066,9.729999542236328,-0.0625,0,0,29.875,-27.1875,-19.5625,-0.3962460458278656,-0.004760812036693096,0.007141217589378357,-0.9181042313575745,25890,626
0,0.05999999865889549,-0.10000000149011612,9.779999732971191,0.0625,0,0.0625,29.875,-25.6875,-18.5,-0.3962460458278656,-0.004760812036693096,0.007141217589378357,-0.9181042313575745,25900,627
0,0.03999999910593033,-0.07999999821186066,9.729999542236328,0,-0.25,0.0625,29.875,-25.6875,-18.5,-0.3962460458278656,-0.004760812036693096,0.007141217589378357,-0.9181042313575745,25910,628
